time,seconds_elapsed,z,y,x
1768558756667608000,0.065608154296875,-0.0334930419921875,-0.9999847412109375,-0.0541534423828125
1768558756677637000,0.07563720703125,-0.05267333984375,-0.99786376953125,-0.06097412109375
1768558756687666200,0.085666259765625,-0.04241943359375,-1.0006866455078125,-0.0465240478515625
1768558756697695000,0.095695068359375,-0.047088623046875,-1.000152587890625,-0.044647216796875
1768558756707724000,0.10572412109375,-0.0473785400390625,-0.9992828369140625,-0.04534912109375
1768558756717753000,0.115753173828125,-0.0339813232421875,-0.9999847412109375,-0.0345306396484375
1768558756727782000,0.125781982421875,-0.04156494140625,-0.9986114501953125,-0.03985595703125
1768558756737811200,0.135811279296875,-0.051422119140625,-0.999847412109375,-0.0588836669921875
1768558756747841000,0.145841064453125,-0.0095062255859375,-1.0045928955078125,0.051727294921875
1768558756757870000,0.1558701171875,0.00457763671875,-0.9898834228515625,-0.122222900390625
1768558756767899100,0.165899169921875,-0.06854248046875,-0.998565673828125,-0.066741943359375
1768558756777928200,0.17592822265625,-0.0180206298828125,-1.010711669921875,-0.03912353515625
1768558756787957000,0.18595703125,-0.0078887939453125,-0.9893798828125,-0.0574798583984375
1768558756797986000,0.195986083984375,-0.047271728515625,-0.9996490478515625,-0.0491485595703125
1768558756808015000,0.20601513671875,-0.0400390625,-0.9968109130859375,-0.033172607421875
1768558756818044000,0.2160439453125,-0.0550384521484375,-1.00006103515625,-0.03863525390625
1768558756828073000,0.226072998046875,-0.0664825439453125,-0.99908447265625,-0.04547119140625
1768558756838103000,0.23610302734375,-0.053253173828125,-0.99871826171875,-0.0328369140625
1768558756848132000,0.246132080078125,-0.0642242431640625,-0.998779296875,-0.0399017333984375
1768558756858161000,0.256160888671875,-0.0570526123046875,-1.0010223388671875,-0.050628662109375
1768558756868190000,0.26618994140625,0.0807647705078125,-1.012420654296875,0.0360260009765625
1768558756878219000,0.276218994140625,-0.2916717529296875,-0.9792327880859375,-0.0803375244140625
1768558756888248000,0.286248046875,-0.0165557861328125,-0.992279052734375,-0.182708740234375
1768558756898277000,0.296277099609375,0.1262054443359375,-1.013031005859375,0.05224609375
1768558756908306200,0.30630615234375,-0.12615966796875,-0.9977874755859375,-0.028564453125
1768558756918335000,0.3163349609375,-0.015350341796875,-0.9898529052734375,-0.129669189453125
1768558756928364000,0.326364013671875,-0.0208892822265625,-1.00225830078125,-0.01171875
1768558756938394000,0.33639404296875,-0.054840087890625,-0.9998321533203125,-0.0389556884765625
1768558756948423200,0.346423095703125,-0.0357818603515625,-0.99603271484375,-0.063232421875
1768558756958452000,0.356451904296875,-0.0482330322265625,-1.001495361328125,-0.02862548828125
1768558756968481000,0.36648095703125,-0.038299560546875,-1.0010223388671875,-0.0426177978515625
1768558756978510000,0.376510009765625,-0.0380859375,-0.999176025390625,-0.0466766357421875
1768558756988539000,0.386538818359375,-0.0382537841796875,-0.9981689453125,-0.0469512939453125
1768558756998568000,0.39656787109375,-0.0438995361328125,-0.9979705810546875,-0.0511474609375
1768558757008597200,0.40659716796875,-0.04595947265625,-0.9970855712890625,-0.0512237548828125
1768558757018626000,0.4166259765625,-0.039337158203125,-0.9967803955078125,-0.059051513671875
1768558757028656000,0.42665625,-0.046783447265625,-0.996978759765625,-0.060821533203125
1768558757038685200,0.436685302734375,-0.046142578125,-0.998931884765625,-0.046142578125
1768558757048714200,0.44671435546875,-0.0400238037109375,-0.9996185302734375,-0.0326385498046875
1768558757058743000,0.456742919921875,-0.0412750244140625,-1.000213623046875,-0.0215911865234375
1768558757068772000,0.466772216796875,-0.0615386962890625,-1.0074310302734375,-0.0526885986328125
1768558757078801200,0.47680126953125,-0.0650787353515625,-1.0016937255859375,0.07550048828125
1768558757088830000,0.486829833984375,0.06103515625,-0.9921417236328125,-0.152557373046875
1768558757098859000,0.49685888671875,-0.1496124267578125,-0.992279052734375,-0.0768280029296875
1768558757108888000,0.50688818359375,-0.012054443359375,-1.005157470703125,0.004241943359375
1768558757118916900,0.516916748046875,-0.020843505859375,-0.9964447021484375,-0.0789794921875
1768558757128947000,0.526947021484375,-0.0759429931640625,-0.9976348876953125,-0.0410919189453125
1768558757138976000,0.53697607421875,-0.0000762939453125,-1.00128173828125,-0.038299560546875
1768558757149005000,0.547005126953125,-0.0625457763671875,-0.99859619140625,-0.0472869873046875
1768558757159034000,0.5570341796875,-0.0350341796875,-0.9994354248046875,-0.048583984375
1768558757169063200,0.567063232421875,-0.0394744873046875,-0.9977874755859375,-0.0492401123046875
1768558757179092200,0.57709228515625,-0.0533294677734375,-0.9979705810546875,-0.0586395263671875
1768558757189121000,0.58712109375,-0.0338134765625,-0.99835205078125,-0.0437469482421875
1768558757199150000,0.597150146484375,-0.048431396484375,-0.9981536865234375,-0.0427703857421875
1768558757209179100,0.60717919921875,-0.04620361328125,-0.9985504150390625,-0.0421295166015625
1768558757219208000,0.6172080078125,-0.037811279296875,-0.9996337890625,-0.033355712890625
1768558757229237000,0.627237060546875,-0.0468292236328125,-0.999176025390625,-0.0452728271484375
1768558757239267000,0.63726708984375,-0.046539306640625,-0.9986724853515625,-0.04541015625
1768558757249296000,0.6472958984375,-0.03900146484375,-1.0000152587890625,-0.0458526611328125
1768558757259325000,0.657324951171875,-0.039642333984375,-0.9998321533203125,-0.0437774658203125
1768558757269354000,0.66735400390625,-0.0433807373046875,-0.998748779296875,-0.044219970703125
1768558757279383000,0.677383056640625,-0.0379486083984375,-0.99920654296875,-0.0445404052734375
1768558757289412000,0.687412109375,-0.033294677734375,-0.9989013671875,-0.0428009033203125
1768558757299441200,0.697441162109375,-0.03546142578125,-0.9983367919921875,-0.04681396484375
1768558757309470200,0.70747021484375,-0.041778564453125,-0.998046875,-0.0447540283203125
1768558757319499000,0.7174990234375,-0.040191650390625,-0.9988555908203125,-0.047698974609375
1768558757329528000,0.727528076171875,-0.0433349609375,-0.9986724853515625,-0.0454864501953125
1768558757339558100,0.73755810546875,-0.04638671875,-0.997406005859375,-0.041107177734375
1768558757349586700,0.747586669921875,-0.0451507568359375,-0.998748779296875,-0.04168701171875
1768558757359615500,0.757615478515625,-0.0480804443359375,-0.9995269775390625,-0.04571533203125
1768558757369644500,0.76764453125,-0.04827880859375,-0.99774169921875,-0.0440673828125
1768558757379673600,0.777673583984375,-0.037200927734375,-0.9979400634765625,-0.04241943359375
1768558757389702700,0.78770263671875,-0.0408935546875,-0.9984588623046875,-0.046356201171875
1768558757399731700,0.797731689453125,-0.0408935546875,-0.999481201171875,-0.0449676513671875
1768558757409760800,0.8077607421875,-0.0374755859375,-0.9990234375,-0.0433502197265625
1768558757419789600,0.81778955078125,-0.0401458740234375,-0.999267578125,-0.04376220703125
1768558757429818600,0.827818603515625,-0.0452117919921875,-0.9993133544921875,-0.045684814453125
1768558757439847700,0.83784765625,-0.0380859375,-0.9993438720703125,-0.041656494140625
1768558757449877800,0.847877685546875,-0.0385894775390625,-0.9989013671875,-0.0472412109375
1768558757459906600,0.857906494140625,-0.046142578125,-0.99755859375,-0.0490264892578125
1768558757469935600,0.867935546875,-0.0361175537109375,-0.9980010986328125,-0.045196533203125
1768558757479964700,0.877964599609375,-0.039520263671875,-1.0009765625,-0.0465545654296875
1768558757489993500,0.887993408203125,-0.0139923095703125,-1.0013427734375,-0.0509033203125
1768558757500022500,0.8980224609375,-0.05511474609375,-0.9971923828125,-0.048614501953125
1768558757510051800,0.9080517578125,-0.031829833984375,-0.99853515625,-0.045989990234375
1768558757520080600,0.91808056640625,-0.04376220703125,-0.998809814453125,-0.04022216796875
1768558757530109700,0.928109619140625,-0.05487060546875,-0.99774169921875,-0.0505218505859375
1768558757540138800,0.938138671875,-0.051422119140625,-0.9994964599609375,-0.0390472412109375
1768558757550167600,0.94816748046875,-0.04290771484375,-0.997894287109375,-0.03857421875
1768558757560197600,0.95819775390625,-0.0439453125,-0.998626708984375,-0.043670654296875
1768558757570226700,0.968226806640625,-0.044952392578125,-0.9994354248046875,-0.0404815673828125
1768558757580255700,0.978255859375,-0.0467529296875,-0.99896240234375,-0.0413970947265625
1768558757590284500,0.988284423828125,-0.0431671142578125,-0.99908447265625,-0.04095458984375
1768558757600313600,0.998313720703125,-0.04376220703125,-0.998382568359375,-0.04345703125
1768558757610342700,1.0083427734375,-0.0438690185546875,-0.9981536865234375,-0.0439453125
1768558757620371500,1.018371337890625,-0.0397491455078125,-0.9990081787109375,-0.04400634765625
1768558757630400800,1.02840087890625,-0.0387420654296875,-0.999114990234375,-0.0433807373046875
1768558757640429800,1.038429931640625,-0.043212890625,-0.9980010986328125,-0.049591064453125
1768558757650458600,1.048458740234375,-0.042327880859375,-0.997802734375,-0.0571136474609375
1768558757660487700,1.05848779296875,-0.0405731201171875,-0.998077392578125,-0.0516357421875
1768558757670517800,1.068517822265625,-0.0449676513671875,-0.9987945556640625,-0.049713134765625
1768558757680546800,1.078546875,-0.040496826171875,-0.9984893798828125,-0.0448150634765625
1768558757690575600,1.08857568359375,-0.0430145263671875,-0.998138427734375,-0.0425872802734375
1768558757700604700,1.098604736328125,-0.0443572998046875,-0.9986572265625,-0.04296875
1768558757710633700,1.1086337890625,-0.0385284423828125,-1.0003204345703125,-0.040557861328125
1768558757720662500,1.11866259765625,-0.04290771484375,-1.000213623046875,-0.03924560546875
1768558757730691600,1.128691650390625,-0.0446624755859375,-0.999755859375,-0.041900634765625
1768558757740720600,1.138720703125,-0.03814697265625,-0.99969482421875,-0.0456695556640625
1768558757750749700,1.148749755859375,-0.0383453369140625,-0.9978179931640625,-0.047698974609375
1768558757760778800,1.15877880859375,-0.0408935546875,-0.9982452392578125,-0.055938720703125
1768558757770807800,1.168807861328125,-0.0384979248046875,-0.9976806640625,-0.0526580810546875
1768558757780837600,1.178837646484375,-0.0420989990234375,-0.998199462890625,-0.050445556640625
1768558757790866700,1.18886669921875,-0.0404205322265625,-0.9984283447265625,-0.052703857421875
1768558757800895700,1.198895751953125,-0.041961669921875,-0.997894287109375,-0.0500946044921875
1768558757810924500,1.208924560546875,-0.04205322265625,-0.997222900390625,-0.047515869140625
1768558757820953600,1.21895361328125,-0.0407562255859375,-0.998382568359375,-0.04644775390625
1768558757830982700,1.228982666015625,-0.0420989990234375,-0.99981689453125,-0.03875732421875
1768558757841011700,1.23901171875,-0.045257568359375,-1.0002593994140625,-0.0361480712890625
1768558757851040500,1.24904052734375,-0.0427398681640625,-0.99932861328125,-0.0414276123046875
1768558757861069600,1.259069580078125,-0.0411529541015625,-0.999969482421875,-0.04534912109375
1768558757871099000,1.269098876953125,-0.043548583984375,-0.9987030029296875,-0.0433349609375
1768558757881127700,1.279127685546875,-0.0419158935546875,-0.99822998046875,-0.04962158203125
1768558757891156700,1.28915673828125,-0.0392608642578125,-0.9986419677734375,-0.0511932373046875
1768558757901186800,1.299186767578125,-0.0415496826171875,-0.998077392578125,-0.056060791015625
1768558757911215600,1.309215576171875,-0.0376739501953125,-0.99749755859375,-0.0508270263671875
1768558757921244700,1.31924462890625,-0.0409698486328125,-0.9975738525390625,-0.045135498046875
1768558757931273700,1.329273681640625,-0.0443572998046875,-0.999176025390625,-0.045684814453125
1768558757941302500,1.339302490234375,-0.0384368896484375,-0.999786376953125,-0.0363311767578125
1768558757951331600,1.34933154296875,-0.04571533203125,-1.0008087158203125,-0.03680419921875
1768558757961360600,1.359360595703125,-0.046142578125,-0.998779296875,-0.0454864501953125
1768558757971389400,1.369389404296875,-0.0401611328125,-0.9997100830078125,-0.0383148193359375
1768558757981418500,1.37941845703125,-0.046661376953125,-0.998992919921875,-0.047088623046875
1768558757991447800,1.38944775390625,-0.0444793701171875,-0.9993438720703125,-0.050537109375
1768558758001476600,1.3994765625,-0.04315185546875,-0.99993896484375,-0.0433807373046875
1768558758011505700,1.409505615234375,-0.0437164306640625,-0.99951171875,-0.043975830078125
1768558758021535700,1.41953564453125,-0.037567138671875,-0.9991455078125,-0.047637939453125
1768558758031564800,1.429564697265625,-0.0417022705078125,-0.9995269775390625,-0.05133056640625
1768558758041593600,1.439593505859375,-0.0408477783203125,-0.9984283447265625,-0.0507354736328125
1768558758051622700,1.44962255859375,-0.03924560546875,-0.9987335205078125,-0.042236328125
1768558758061651700,1.459651611328125,-0.041839599609375,-0.99853515625,-0.0467071533203125
1768558758071680500,1.469680419921875,-0.042633056640625,-0.9980926513671875,-0.0458984375
1768558758081709600,1.47970947265625,-0.0431671142578125,-0.99835205078125,-0.0441131591796875
1768558758091738600,1.489738525390625,-0.0412445068359375,-0.998077392578125,-0.0478363037109375
1768558758101767400,1.499767333984375,-0.0453338623046875,-1.0004425048828125,-0.0440673828125
1768558758111796700,1.509796630859375,-0.0416107177734375,-0.9990997314453125,-0.04632568359375
1768558758121825800,1.51982568359375,-0.040802001953125,-0.9987335205078125,-0.03997802734375
1768558758131854600,1.5298544921875,-0.0403594970703125,-0.99951171875,-0.0421295166015625
1768558758141884700,1.539884765625,-0.0416717529296875,-0.9991455078125,-0.04248046875
1768558758151913700,1.549913818359375,-0.0434417724609375,-0.9984130859375,-0.0442352294921875
1768558758161942800,1.55994287109375,-0.0404052734375,-0.9975128173828125,-0.047882080078125
1768558758171971600,1.5699716796875,-0.0423126220703125,-0.9997406005859375,-0.0437164306640625
1768558758182000600,1.580000732421875,-0.0410003662109375,-0.9990386962890625,-0.0418853759765625
1768558758192029700,1.59002978515625,-0.042572021484375,-0.9983367919921875,-0.0437469482421875
1768558758202058500,1.60005859375,-0.0406951904296875,-0.999114990234375,-0.045684814453125
1768558758212087600,1.610087646484375,-0.0412139892578125,-0.99871826171875,-0.044525146484375
1768558758222116600,1.62011669921875,-0.042755126953125,-0.998321533203125,-0.050994873046875
1768558758232145700,1.630145751953125,-0.041015625,-0.99749755859375,-0.0534210205078125
1768558758242174700,1.6401748046875,-0.040771484375,-0.9976654052734375,-0.0506591796875
1768558758252203800,1.650203857421875,-0.04071044921875,-0.998565673828125,-0.0503387451171875
1768558758262233900,1.66023388671875,-0.040740966796875,-0.9985198974609375,-0.0471954345703125
1768558758272262700,1.6702626953125,-0.0426025390625,-0.9976806640625,-0.0482330322265625
1768558758282291700,1.680291748046875,-0.043670654296875,-0.99798583984375,-0.0457000732421875
1768558758292320800,1.69032080078125,-0.0418853759765625,-0.99749755859375,-0.042388916015625
1768558758302349600,1.700349609375,-0.041259765625,-0.999786376953125,-0.0421905517578125
1768558758312378600,1.710378662109375,-0.0419769287109375,-0.999359130859375,-0.04058837890625
1768558758322407700,1.72040771484375,-0.04351806640625,-0.9991912841796875,-0.0413818359375
1768558758332436500,1.7304365234375,-0.0424346923828125,-0.9998779296875,-0.0435943603515625
1768558758342465500,1.740465576171875,-0.0428009033203125,-0.998931884765625,-0.044769287109375
1768558758352494800,1.750494873046875,-0.0439605712890625,-0.9995880126953125,-0.0439453125
1768558758362524200,1.760524169921875,-0.0402374267578125,-0.99932861328125,-0.047332763671875
1768558758372554000,1.770553955078125,-0.0389556884765625,-0.9996185302734375,-0.044952392578125
1768558758382583000,1.7805830078125,-0.0410614013671875,-0.999176025390625,-0.0510711669921875
1768558758392612000,1.790612060546875,-0.04107666015625,-0.998748779296875,-0.0491180419921875
1768558758402641200,1.80064111328125,-0.040008544921875,-0.998443603515625,-0.045654296875
1768558758412670200,1.810670166015625,-0.041015625,-0.998077392578125,-0.0451202392578125
1768558758422699000,1.820698974609375,-0.041656494140625,-0.99627685546875,-0.047454833984375
1768558758432728000,1.83072802734375,-0.0395965576171875,-0.99853515625,-0.0426177978515625
1768558758442757000,1.840757080078125,-0.040252685546875,-1.000244140625,-0.0406341552734375
1768558758452786000,1.850785888671875,-0.0445709228515625,-0.9990386962890625,-0.046051025390625
1768558758462815000,1.86081494140625,-0.0424957275390625,-0.9983673095703125,-0.0470733642578125
1768558758472844000,1.870843994140625,-0.0406036376953125,-0.9991302490234375,-0.0450592041015625
1768558758482874000,1.8808740234375,-0.039703369140625,-0.999114990234375,-0.0420074462890625
1768558758492903000,1.89090283203125,-0.0413360595703125,-0.9983367919921875,-0.0481109619140625
1768558758502932000,1.900931884765625,-0.0427398681640625,-0.9993743896484375,-0.0472412109375
1768558758512961000,1.9109609375,-0.0424041748046875,-0.998321533203125,-0.0473785400390625
1768558758522990000,1.920989990234375,-0.047119140625,-0.998291015625,-0.05010986328125
1768558758533019100,1.93101904296875,-0.0374298095703125,-0.99896240234375,-0.04351806640625
1768558758543048200,1.941048095703125,-0.0388946533203125,-0.99822998046875,-0.042938232421875
1768558758553077000,1.951076904296875,-0.045440673828125,-0.9979705810546875,-0.04266357421875
1768558758563106000,1.96110595703125,-0.0394287109375,-0.9981842041015625,-0.0402984619140625
1768558758573135000,1.971135009765625,-0.0426483154296875,-1.0001220703125,-0.0416412353515625
1768558758583164000,1.981163818359375,-0.0435638427734375,-0.9998626708984375,-0.0494232177734375
1768558758593194000,1.991194091796875,-0.045318603515625,-0.9977264404296875,-0.0503997802734375
1768558758603223000,2.00122314453125,-0.041046142578125,-0.998748779296875,-0.04833984375
1768558758613252000,2.011252197265625,-0.0363311767578125,-0.9989776611328125,-0.050537109375
1768558758623281000,2.021281005859375,-0.03411865234375,-0.998321533203125,-0.0454864501953125
1768558758633310000,2.03131005859375,-0.031097412109375,-0.9993896484375,-0.04278564453125
1768558758643339300,2.04133935546875,-0.0479736328125,-0.99774169921875,-0.0414581298828125
1768558758653368000,2.0513681640625,-0.0713043212890625,-0.9972686767578125,-0.0462188720703125
1768558758663397000,2.061397216796875,-0.016876220703125,-1.0032806396484375,-0.0419921875
1768558758673426200,2.07142626953125,-0.0430908203125,-0.9998626708984375,-0.0382843017578125
1768558758683455000,2.081455078125,-0.063507080078125,-0.99945068359375,-0.0433502197265625
1768558758693484000,2.091484130859375,-0.0296478271484375,-0.9981231689453125,-0.04071044921875
1768558758703514000,2.10151416015625,-0.0427398681640625,-0.998199462890625,-0.0401458740234375
1768558758713543200,2.111543212890625,-0.0380706787109375,-0.9998626708984375,-0.04168701171875
1768558758723572000,2.121572021484375,-0.035736083984375,-0.9990997314453125,-0.0391082763671875
1768558758733601000,2.13160107421875,-0.037261962890625,-0.999359130859375,-0.041961669921875
1768558758743630000,2.141630126953125,-0.03729248046875,-1.000030517578125,-0.0360870361328125
1768558758753659100,2.1516591796875,-0.0403594970703125,-0.9988555908203125,-0.050811767578125
1768558758763688200,2.161688232421875,-0.038970947265625,-0.99658203125,-0.0524749755859375
1768558758773717200,2.17171728515625,-0.035308837890625,-0.997802734375,-0.049591064453125
1768558758783746000,2.18174609375,-0.0425567626953125,-0.998382568359375,-0.0572357177734375
1768558758793775000,2.191775146484375,-0.0364837646484375,-0.999359130859375,-0.04742431640625
1768558758803805200,2.20180517578125,-0.0404205322265625,-0.99847412109375,-0.04718017578125
1768558758813834000,2.211833984375,-0.0399169921875,-0.9984283447265625,-0.0394744873046875
1768558758823863000,2.221863037109375,-0.0398712158203125,-0.99908447265625,-0.0384063720703125
1768558758833892000,2.23189208984375,-0.0415802001953125,-0.997955322265625,-0.0424652099609375
1768558758843921000,2.2419208984375,-0.041351318359375,-0.9997406005859375,-0.0445556640625
1768558758853950000,2.251949951171875,-0.035308837890625,-0.997344970703125,-0.0429534912109375
1768558758863979000,2.26197900390625,-0.0456695556640625,-0.998687744140625,-0.0502166748046875
1768558758874008000,2.272008056640625,-0.037353515625,-0.9989471435546875,-0.0401458740234375
1768558758884037000,2.282037109375,-0.0423583984375,-0.99981689453125,-0.048553466796875
1768558758894066200,2.292066162109375,-0.04541015625,-0.9984283447265625,-0.0469818115234375
1768558758904096000,2.302095947265625,-0.03594970703125,-0.9998931884765625,-0.046417236328125
1768558758914125000,2.312125,-0.040435791015625,-0.9983673095703125,-0.044708251953125
1768558758924154000,2.322154052734375,-0.03802490234375,-0.99951171875,-0.0452423095703125
1768558758934183200,2.33218310546875,-0.038787841796875,-0.998260498046875,-0.04534912109375
1768558758944212000,2.3422119140625,-0.0400543212890625,-0.9985809326171875,-0.045623779296875
1768558758954241000,2.352240966796875,-0.04052734375,-0.9984893798828125,-0.0436859130859375
1768558758964270000,2.36227001953125,-0.04254150390625,-0.99847412109375,-0.04754638671875
1768558758974299000,2.372298828125,-0.04248046875,-0.998870849609375,-0.0465087890625
1768558758984328000,2.382327880859375,-0.0406036376953125,-0.99859619140625,-0.0439300537109375
1768558758994357000,2.39235693359375,-0.0373077392578125,-1.001251220703125,-0.038726806640625
1768558759004386000,2.402385986328125,-0.038482666015625,-0.9983062744140625,-0.0435943603515625
1768558759014416000,2.412415771484375,-0.0457000732421875,-0.996185302734375,-0.0544586181640625
1768558759024445200,2.422445068359375,-0.0396270751953125,-1.0005950927734375,-0.037017822265625
1768558759034474200,2.43247412109375,-0.0414886474609375,-0.998687744140625,-0.048675537109375
1768558759044503000,2.4425029296875,-0.0489501953125,-1.0000152587890625,-0.0482025146484375
1768558759054532000,2.452531982421875,-0.03173828125,-0.9995269775390625,-0.0356292724609375
1768558759064561200,2.46256103515625,-0.0458526611328125,-0.9983673095703125,-0.0521697998046875
1768558759074590000,2.47258984375,-0.0360870361328125,-0.9990997314453125,-0.044036865234375
1768558759084619000,2.482618896484375,-0.0354766845703125,-0.9987640380859375,-0.045196533203125
1768558759094648000,2.49264794921875,-0.0420989990234375,-0.9987945556640625,-0.047210693359375
1768558759104676900,2.5026767578125,-0.0392608642578125,-0.9982147216796875,-0.047760009765625
1768558759114707000,2.51270703125,-0.039581298828125,-0.9984283447265625,-0.0432281494140625
1768558759124736000,2.522736083984375,-0.0418548583984375,-0.99981689453125,-0.0475616455078125
1768558759134765000,2.53276513671875,-0.04595947265625,-0.9983062744140625,-0.0505828857421875
1768558759144794000,2.542794189453125,-0.04345703125,-0.9972076416015625,-0.0471343994140625
1768558759154823200,2.5528232421875,-0.0424346923828125,-0.998992919921875,-0.0449676513671875
1768558759164852200,2.562852294921875,-0.0442962646484375,-0.9986724853515625,-0.044830322265625
1768558759174881000,2.572881103515625,-0.0433197021484375,-0.9993743896484375,-0.044769287109375
1768558759184910000,2.58291015625,-0.04290771484375,-1.000274658203125,-0.0396881103515625
1768558759194939100,2.592939208984375,-0.0423126220703125,-0.9982452392578125,-0.0410308837890625
1768558759204968000,2.602968017578125,-0.0396270751953125,-0.998748779296875,-0.04119873046875
1768558759214998000,2.612998046875,-0.0347900390625,-0.99725341796875,-0.0367584228515625
1768558759225027000,2.623027099609375,-0.0334320068359375,-0.999725341796875,-0.0389404296875
1768558759235056000,2.63305615234375,-0.0373077392578125,-0.999176025390625,-0.05072021484375
1768558759245085000,2.6430849609375,-0.03729248046875,-0.99755859375,-0.0492095947265625
1768558759255114000,2.653114013671875,-0.0338592529296875,-0.9981536865234375,-0.044769287109375
1768558759265143000,2.66314306640625,-0.0313568115234375,-1.0005950927734375,-0.0428924560546875
1768558759275172000,2.673172119140625,-0.0395355224609375,-0.9977569580078125,-0.0628814697265625
1768558759285201200,2.683201171875,-0.046173095703125,-0.9997711181640625,-0.055816650390625
1768558759295230200,2.693230224609375,-0.0408935546875,-1.0001678466796875,-0.051239013671875
1768558759305259000,2.703259033203125,-0.037750244140625,-0.9988861083984375,-0.049591064453125
1768558759315289000,2.7132890625,-0.0339813232421875,-0.9995880126953125,-0.0438079833984375
1768558759325318100,2.723318115234375,-0.0375213623046875,-0.99951171875,-0.043304443359375
1768558759335347200,2.73334716796875,-0.041839599609375,-0.9994964599609375,-0.041717529296875
1768558759345376000,2.7433759765625,-0.0258941650390625,-0.986328125,-0.068634033203125
1768558759355404800,2.75340478515625,-0.04736328125,-1.0126800537109375,-0.002685546875
1768558759365433600,2.76343359375,-0.0327301025390625,-0.9938812255859375,-0.030609130859375
1768558759375462700,2.773462646484375,-0.0182647705078125,-1.0009613037109375,-0.0598602294921875
1768558759385492000,2.783491943359375,-0.0494232177734375,-1.0010833740234375,-0.03631591796875
1768558759395520800,2.793520751953125,-0.067779541015625,-1.0002899169921875,-0.0467071533203125
1768558759405550600,2.803550537109375,-0.0492095947265625,-0.99847412109375,-0.0388336181640625
1768558759415580000,2.813579833984375,-0.018310546875,-1.001678466796875,-0.0524444580078125
1768558759425609000,2.82360888671875,-0.02203369140625,-0.9968719482421875,-0.0363311767578125
1768558759435637800,2.8336376953125,-0.031646728515625,-0.9971466064453125,-0.0354461669921875
1768558759445666800,2.843666748046875,-0.0588836669921875,-1.0028076171875,-0.07135009765625
1768558759455696000,2.85369580078125,-0.0517425537109375,-1.00244140625,-0.0512542724609375
1768558759465724700,2.863724609375,-0.029998779296875,-0.9962005615234375,-0.0498809814453125
1768558759475753700,2.873753662109375,-0.040191650390625,-0.99896240234375,-0.0692901611328125
1768558759485782800,2.88378271484375,-0.0392303466796875,-1.000152587890625,-0.0465087890625
1768558759495811600,2.8938115234375,-0.0055084228515625,-0.9964599609375,-0.0016021728515625
1768558759505841700,2.903841552734375,-0.0447998046875,-0.998565673828125,-0.011383056640625
1768558759515870700,2.91387060546875,-0.1046600341796875,-0.99566650390625,-0.0627288818359375
1768558759525899800,2.923899658203125,-0.069793701171875,-1.0071258544921875,-0.0239410400390625
1768558759535928800,2.9339287109375,0.0827789306640625,-0.98919677734375,-0.0124969482421875
1768558759545958000,2.9439580078125,0.006103515625,-0.999969482421875,-0.101806640625
1768558759555987000,2.953987060546875,-0.098175048828125,-1.0018463134765625,-0.0753936767578125
1768558759566015700,2.964015625,-0.055877685546875,-0.9999237060546875,-0.01214599609375
1768558759576044800,2.974044921875,-0.0971221923828125,-1.0137481689453125,-0.093414306640625
1768558759586073900,2.984073974609375,0.08917236328125,-0.986419677734375,-0.0106201171875
1768558759596103700,2.994103759765625,0.0023040771484375,-1.0107879638671875,-0.044830322265625
1768558759606132700,3.0041328125,-0.040618896484375,-0.993804931640625,-0.033416748046875
1768558759616161800,3.014161865234375,0.0059661865234375,-1.0043182373046875,-0.0422210693359375
1768558759626190600,3.024190673828125,0.01788330078125,-0.996246337890625,-0.037445068359375
1768558759636219600,3.0342197265625,-0.0341949462890625,-0.999298095703125,-0.0396728515625
1768558759646248700,3.044248779296875,-0.111053466796875,-0.9979095458984375,-0.0381011962890625
1768558759656277800,3.05427783203125,-0.1086883544921875,-0.99578857421875,-0.0397796630859375
1768558759666306800,3.064306884765625,-0.0601806640625,-0.9959564208984375,-0.0470123291015625
1768558759676335900,3.0743359375,-0.02374267578125,-0.999664306640625,-0.04925537109375
1768558759686366000,3.084365966796875,0.0091552734375,-1.0102386474609375,-0.0614013671875
1768558759696394800,3.094394775390625,0.0024566650390625,-1.0081787109375,-0.0715179443359375
1768558759706423800,3.104423828125,-0.033660888671875,-0.9969940185546875,-0.0246124267578125
1768558759716452900,3.114452880859375,-0.062286376953125,-0.986297607421875,0.0010833740234375
1768558759726481700,3.124481689453125,-0.087982177734375,-0.98291015625,0.013916015625
1768558759736510700,3.1345107421875,-0.0549163818359375,-1.0108184814453125,-0.07025146484375
1768558759746539800,3.144539794921875,-0.010772705078125,-1.0022125244140625,-0.0875701904296875
1768558759756568600,3.154568603515625,-0.0059356689453125,-1.0007781982421875,-0.0106201171875
1768558759766597600,3.16459765625,-0.029632568359375,-1.0012359619140625,-0.0265655517578125
1768558759776627700,3.174627685546875,-0.0446929931640625,-0.9990692138671875,-0.0702972412109375
1768558759786656800,3.18465673828125,-0.0556182861328125,-0.9969024658203125,-0.0404205322265625
1768558759796685600,3.194685546875,-0.0468597412109375,-0.9971160888671875,-0.0207366943359375
1768558759806715000,3.20471484375,-0.0208740234375,-1.0001373291015625,-0.046630859375
1768558759816744000,3.214743896484375,-0.0112762451171875,-1.0014190673828125,-0.0465545654296875
1768558759826772700,3.224772705078125,-0.0155181884765625,-1.0001678466796875,-0.0323028564453125
1768558759836801800,3.2348017578125,-0.025848388671875,-1.0004730224609375,-0.046295166015625
1768558759846830800,3.244830810546875,-0.0244293212890625,-0.9990234375,-0.0467376708984375
1768558759856859600,3.254859619140625,-0.0144500732421875,-0.998443603515625,-0.0380859375
1768558759866889700,3.2648896484375,-0.0086212158203125,-0.99945068359375,-0.0454559326171875
1768558759876918800,3.274918701171875,-0.012115478515625,-0.9996185302734375,-0.0560150146484375
1768558759886947800,3.28494775390625,-0.0156402587890625,-0.9990997314453125,-0.0511474609375
1768558759896976600,3.2949765625,-0.0240020751953125,-1.000213623046875,-0.0415802001953125
1768558759907005700,3.305005615234375,-0.0321502685546875,-1.001190185546875,-0.0375823974609375
1768558759917034800,3.31503466796875,-0.0423431396484375,-0.99920654296875,-0.0396270751953125
1768558759927063800,3.325063720703125,-0.04412841796875,-0.9984283447265625,-0.0401153564453125
1768558759937092900,3.3350927734375,-0.0452728271484375,-0.999114990234375,-0.0419464111328125
1768558759947122000,3.345121826171875,-0.0510406494140625,-0.997711181640625,-0.034271240234375
1768558759957151700,3.35515185546875,-0.0524444580078125,-0.9993896484375,-0.039276123046875
1768558759967180800,3.365180908203125,-0.0459442138671875,-0.997467041015625,-0.0382232666015625
1768558759977209900,3.3752099609375,-0.0457305908203125,-0.997955322265625,-0.0380706787109375
1768558759987239000,3.385239013671875,-0.0496978759765625,-0.999755859375,-0.04412841796875
1768558759997267700,3.395267822265625,-0.0427093505859375,-0.9986419677734375,-0.0393524169921875
1768558760007296800,3.405296875,-0.0414886474609375,-0.99798583984375,-0.0401611328125
1768558760017325800,3.415325927734375,-0.04083251953125,-1.0004730224609375,-0.0449981689453125
1768558760027354600,3.425354736328125,-0.038726806640625,-0.9996337890625,-0.0435638427734375
1768558760037384700,3.435384765625,-0.04510498046875,-0.99749755859375,-0.0398101806640625
1768558760047413800,3.445413818359375,-0.048553466796875,-0.9989166259765625,-0.0392608642578125
1768558760057442600,3.455442626953125,-0.04754638671875,-0.9975738525390625,-0.0398101806640625
1768558760067471600,3.4654716796875,-0.0442047119140625,-0.9965667724609375,-0.0390777587890625
1768558760077501000,3.4755009765625,-0.0361480712890625,-0.999053955078125,-0.0386810302734375
1768558760087529700,3.48552978515625,-0.0301055908203125,-1.0005950927734375,-0.0394744873046875
1768558760097558800,3.495558837890625,-0.0321197509765625,-1.000274658203125,-0.041046142578125
1768558760107587800,3.505587890625,-0.0332794189453125,-1.00079345703125,-0.036163330078125
1768558760117618000,3.515617919921875,-0.017608642578125,-1.006591796875,-0.018402099609375
1768558760127646700,3.525646728515625,0.002532958984375,-1.002899169921875,0.0143890380859375
1768558760137675800,3.53567578125,0.005859375,-1.0091705322265625,0.0110321044921875
1768558760147704800,3.545704833984375,-0.003570556640625,-1.0043487548828125,0.03948974609375
1768558760157733600,3.555733642578125,-0.0248870849609375,-1.005462646484375,0.0312347412109375
1768558760167762700,3.5657626953125,-0.01947021484375,-1.00537109375,0.042236328125
1768558760177791700,3.575791748046875,0.033416748046875,-1.0125732421875,0.0277557373046875
1768558760187820800,3.58582080078125,-0.8956146240234375,-1.1674041748046875,-3.0338287353515625
1768558760197849900,3.595849853515625,0.488250732421875,-0.134552001953125,-0.787078857421875
1768558760207879700,3.605879638671875,0.8925628662109375,-1.7487335205078125,0.1962127685546875
1768558760217908700,3.61590869140625,-0.0045928955078125,-1.2803955078125,0.6732177734375
1768558760227937800,3.625937744140625,0.155059814453125,-0.560028076171875,1.439666748046875
1768558760237966800,3.635966796875,-0.115203857421875,-0.621124267578125,0.2552337646484375
1768558760247996000,3.645995849609375,-0.5830841064453125,-1.652008056640625,-0.1685943603515625
1768558760258024700,3.656024658203125,-0.432403564453125,-0.7150115966796875,0.059356689453125
1768558760268053800,3.6660537109375,0.0577239990234375,-1.07293701171875,-0.0179901123046875
1768558760278082800,3.676082763671875,0.0118560791015625,-0.989288330078125,0.135772705078125
1768558760288113000,3.68611279296875,0.051422119140625,-0.9740142822265625,0.1180419921875
1768558760298141700,3.6961416015625,-0.033782958984375,-1.0133819580078125,0.0529022216796875
1768558760308170800,3.706170654296875,-0.0993499755859375,-0.9959564208984375,-0.017822265625
1768558760318199800,3.71619970703125,-0.081390380859375,-1.0058441162109375,-0.034942626953125
1768558760328228600,3.726228515625,-0.0220184326171875,-1.0078277587890625,-0.026641845703125
1768558760338257700,3.736257568359375,0.0590362548828125,-1.0096588134765625,0.0057220458984375
1768558760348287200,3.746287353515625,0.072113037109375,-1.0014495849609375,0.0100250244140625
1768558760358317000,3.756317138671875,-0.0186767578125,-1.0079498291015625,0.0009002685546875
1768558760368346000,3.76634619140625,-0.04296875,-0.998321533203125,-0.014251708984375
1768558760378375200,3.776375244140625,-0.0574493408203125,-0.999725341796875,-0.0494842529296875
1768558760388404200,3.786404296875,-0.0531768798828125,-0.997039794921875,-0.0574493408203125
1768558760398433300,3.796433349609375,-0.060546875,-0.9967803955078125,-0.0736083984375
1768558760408462000,3.806462158203125,-0.0402984619140625,-0.9968109130859375,-0.0873565673828125
1768558760418491100,3.8164912109375,-0.007537841796875,-1.0000457763671875,-0.0875091552734375
1768558760428520200,3.826520263671875,0.0035552978515625,-0.9992218017578125,-0.0579986572265625
1768558760438550300,3.83655029296875,-0.0175018310546875,-1.0008544921875,-0.0531158447265625
1768558760448579000,3.8465791015625,-0.05548095703125,-1.006591796875,-0.033172607421875
1768558760458608000,3.856608154296875,-0.0457916259765625,-0.985870361328125,-0.0647125244140625
1768558760468637200,3.86663720703125,0.0095062255859375,-1.0035552978515625,-0.0449981689453125
1768558760478666000,3.876666015625,-0.0257720947265625,-0.9995269775390625,-0.0458526611328125
1768558760488695000,3.886695068359375,-0.06610107421875,-0.9991302490234375,-0.07733154296875
1768558760498724000,3.89672412109375,-0.045318603515625,-0.9965667724609375,-0.0582733154296875
1768558760508753200,3.906753173828125,-0.02215576171875,-0.9983367919921875,-0.06671142578125
1768558760518783000,3.916782958984375,-0.0081939697265625,-1.0009613037109375,-0.1120452880859375
1768558760528812300,3.926812255859375,-0.0108795166015625,-0.995697021484375,-0.09716796875
1768558760538841300,3.93684130859375,-0.0196685791015625,-0.986541748046875,-0.049591064453125
1768558760548870100,3.9468701171875,0.05413818359375,-0.99603271484375,-0.0222015380859375
1768558760558899200,3.956899169921875,0.0521392822265625,-1.0167083740234375,-0.040802001953125
1768558760568928300,3.96692822265625,-0.0090789794921875,-0.9947052001953125,-0.0923919677734375
1768558760578957000,3.97695703125,-0.0271453857421875,-1.002685546875,-0.081085205078125
1768558760588987100,3.986987060546875,-0.0349273681640625,-0.994903564453125,-0.0258026123046875
1768558760599016200,3.99701611328125,-0.056915283203125,-1.00164794921875,0.0098724365234375
1768558760609045000,4.007044921875,-0.077850341796875,-0.999969482421875,-0.01788330078125
1768558760619074000,4.017073974609375,-0.0872802734375,-0.99761962890625,-0.0640106201171875
1768558760629103000,4.02710302734375,-0.08013916015625,-0.993927001953125,-0.081512451171875
1768558760639132200,4.037132080078125,-0.062164306640625,-0.996063232421875,-0.0514373779296875
1768558760649161200,4.0471611328125,-0.0464324951171875,-1.0014190673828125,-0.0167999267578125
1768558760659191000,4.05719091796875,-0.0389251708984375,-0.9966888427734375,-0.0216217041015625
1768558760669220000,4.06722021484375,-0.0446014404296875,-1.0006103515625,-0.04876708984375
1768558760679249200,4.077249267578125,-0.0464324951171875,-0.998199462890625,-0.06439208984375
1768558760689278200,4.0872783203125,-0.041473388671875,-0.998382568359375,-0.04180908203125
1768558760699307300,4.097307373046875,-0.036773681640625,-1.0005645751953125,-0.02813720703125
1768558760709336000,4.107336181640625,-0.0382843017578125,-0.999786376953125,-0.0455169677734375
1768558760719365000,4.117365234375,-0.037994384765625,-0.9976654052734375,-0.057159423828125
1768558760729395200,4.127395263671875,-0.034515380859375,-0.9993438720703125,-0.045501708984375
1768558760739424300,4.13742431640625,-0.0310821533203125,-0.99920654296875,-0.0379638671875
1768558760749453000,4.147453125,-0.032440185546875,-0.999053955078125,-0.043487548828125
1768558760759482000,4.157482177734375,-0.0315093994140625,-0.9982757568359375,-0.052154541015625
1768558760769511200,4.16751123046875,-0.0298614501953125,-0.9996337890625,-0.050201416015625
1768558760779540000,4.1775400390625,-0.0264129638671875,-0.999359130859375,-0.044281005859375
1768558760789569000,4.187569091796875,-0.0252838134765625,-0.9993133544921875,-0.0445556640625
1768558760799599000,4.19759912109375,-0.0269012451171875,-0.9983978271484375,-0.0484619140625
1768558760809628200,4.207628173828125,-0.02484130859375,-0.9986419677734375,-0.04998779296875
1768558760819657000,4.217656982421875,-0.0240020751953125,-0.9991455078125,-0.04632568359375
1768558760829686300,4.227686279296875,-0.023406982421875,-0.9989166259765625,-0.0462799072265625
1768558760839715300,4.23771533203125,-0.0241241455078125,-0.998443603515625,-0.0486602783203125
1768558760849744100,4.247744140625,-0.0242156982421875,-1.000335693359375,-0.050262451171875
1768558760859773200,4.257773193359375,-0.0250396728515625,-1.000518798828125,-0.0469970703125
1768558760869803300,4.26780322265625,-0.025604248046875,-0.9991302490234375,-0.0469512939453125
1768558760879832000,4.27783203125,-0.02655029296875,-0.9987945556640625,-0.047210693359375
1768558760889861000,4.287861083984375,-0.0269622802734375,-0.9990386962890625,-0.048187255859375
1768558760899890200,4.29789013671875,-0.0269927978515625,-0.9983978271484375,-0.0467529296875
1768558760909919200,4.307919189453125,-0.0293731689453125,-0.9987945556640625,-0.0457305908203125
1768558760919948000,4.317947998046875,-0.0305633544921875,-1.0000762939453125,-0.046905517578125
1768558760929977000,4.32797705078125,-0.032562255859375,-0.9998626708984375,-0.0469818115234375
1768558760940007200,4.338007080078125,-0.0333709716796875,-0.9988861083984375,-0.0444488525390625
1768558760950036000,4.348035888671875,-0.03228759765625,-0.99957275390625,-0.044708251953125
1768558760960065000,4.35806494140625,-0.0344085693359375,-0.9986724853515625,-0.0450592041015625
1768558760970094000,4.368093994140625,-0.0352020263671875,-0.9997406005859375,-0.04718017578125
1768558760980123100,4.378123046875,-0.036529541015625,-0.9986724853515625,-0.0460968017578125
1768558760990152200,4.388152099609375,-0.0368194580078125,-0.9989471435546875,-0.04522705078125
1768558761000182300,4.398182373046875,-0.0358734130859375,-0.9997406005859375,-0.0449981689453125
1768558761010211300,4.40821142578125,-0.038055419921875,-0.999847412109375,-0.0452880859375
1768558761020240100,4.418240234375,-0.03839111328125,-0.9998016357421875,-0.045654296875
1768558761030269200,4.428269287109375,-0.042816162109375,-0.9966278076171875,-0.0442047119140625
1768558761040298200,4.43829833984375,-0.055267333984375,-1.0019989013671875,-0.0428466796875
1768558761050327000,4.4483271484375,-0.053009033203125,-0.997161865234375,-0.03863525390625
1768558761060356000,4.458356201171875,-0.05810546875,-0.995697021484375,-0.0452117919921875
1768558761070386200,4.46838623046875,-0.0566253662109375,-0.9982757568359375,-0.0501861572265625
1768558761080415200,4.478415283203125,-0.043243408203125,-1.0006561279296875,-0.03875732421875
1768558761090444000,4.488444091796875,-0.0437469482421875,-0.99591064453125,-0.02813720703125
1768558761100473000,4.49847314453125,-0.052398681640625,-0.9969024658203125,-0.0625152587890625
1768558761110502100,4.508502197265625,-0.036529541015625,-1.0067291259765625,-0.057861328125
1768558761120531200,4.51853125,-0.00787353515625,-0.993499755859375,-0.02960205078125
1768558761130561000,4.52856103515625,0.0353851318359375,-1.007537841796875,-0.0636749267578125
1768558761140590000,4.538590087890625,0.08795166015625,-1.0025177001953125,-0.0731964111328125
1768558761150619100,4.548619140625,0.08203125,-0.9957122802734375,-0.0826263427734375
1768558761160648200,4.558648193359375,0.1107025146484375,-1.0139312744140625,-0.0779876708984375
1768558761170677200,4.56867724609375,0.0638885498046875,-1.0056915283203125,-0.047149658203125
1768558761180706300,4.578706298828125,-0.0611724853515625,-0.9900665283203125,-0.0345916748046875
1768558761190735000,4.588735107421875,-0.0789794921875,-0.9986114501953125,-0.0215606689453125
1768558761200765200,4.59876513671875,-0.0296783447265625,-0.995452880859375,-0.025787353515625
1768558761210794200,4.608794189453125,0.0083465576171875,-1.0006256103515625,-0.0620574951171875
1768558761220823000,4.618822998046875,0.00433349609375,-1.0030364990234375,-0.05767822265625
1768558761230852000,4.62885205078125,-0.0143280029296875,-1.002044677734375,-0.011505126953125
1768558761240881200,4.638881103515625,-0.0373382568359375,-1.002227783203125,0.011199951171875
1768558761250910000,4.648909912109375,-0.0391845703125,-1.0020751953125,-0.0006103515625
1768558761260940000,4.65893994140625,-0.0154266357421875,-1.0017547607421875,-0.00653076171875
1768558761270969000,4.668968994140625,0.0100555419921875,-1.0101318359375,-0.0082855224609375
1768558761280998100,4.678998046875,0.0161590576171875,-1.0054779052734375,-0.007568359375
1768558761291027000,4.68902685546875,0.0245208740234375,-1.008026123046875,-0.004913330078125
1768558761301056300,4.69905615234375,0.150634765625,-1.0118865966796875,-0.0446014404296875
1768558761311085300,4.709085205078125,0.1015167236328125,-0.974334716796875,-0.1122894287109375
1768558761321115100,4.719115234375,-0.0150299072265625,-1.0251922607421875,-0.06817626953125
1768558761331144200,4.729144287109375,0.0408782958984375,-0.9898529052734375,-0.0533294677734375
1768558761341173200,4.73917333984375,0.0294647216796875,-1.0096893310546875,-0.06201171875
1768558761351201800,4.749201904296875,0.0461883544921875,-1.003082275390625,-0.059539794921875
1768558761361230800,4.75923095703125,0.0416259765625,-0.991241455078125,-0.061431884765625
1768558761371260000,4.769260009765625,0.0341796875,-1.0059051513671875,-0.03985595703125
1768558761381289700,4.779289794921875,0.0445556640625,-1.00244140625,-0.0330657958984375
1768558761391318800,4.78931884765625,0.063873291015625,-1.004486083984375,-0.038970947265625
1768558761401347800,4.799347900390625,0.0530548095703125,-1.00299072265625,-0.03466796875
1768558761411376600,4.809376708984375,0.04248046875,-1.0023193359375,-0.03204345703125
1768558761421405700,4.81940576171875,0.0386199951171875,-1.002105712890625,-0.0393218994140625
1768558761431434800,4.829434814453125,0.0417938232421875,-1.00103759765625,-0.0408935546875
1768558761441464800,4.83946484375,0.0398712158203125,-1.00701904296875,-0.0260009765625
1768558761451493600,4.84949365234375,0.0381927490234375,-1.0045623779296875,-0.018310546875
1768558761461523000,4.85952294921875,0.0660858154296875,-0.9991455078125,-0.022918701171875
1768558761471552000,4.869552001953125,0.05810546875,-1.006134033203125,-0.0250396728515625
1768558761481580800,4.879580810546875,0.0760650634765625,-1.003448486328125,-0.0216064453125
1768558761491609900,4.88960986328125,0.0818939208984375,-0.9996795654296875,-0.011749267578125
1768558761501640000,4.899639892578125,0.047607421875,-1.008056640625,-0.01055908203125
1768558761511669000,4.9096689453125,0.0787506103515625,-1.0062713623046875,-0.010009765625
1768558761521697800,4.91969775390625,0.0964202880859375,-0.995147705078125,-0.0078277587890625
1768558761531726800,4.929726806640625,0.0569915771484375,-1.0118255615234375,-0.0115966796875
1768558761541756000,4.939755859375,0.0604705810546875,-0.994049072265625,-0.0120086669921875
1768558761551784700,4.94978466796875,0.0437469482421875,-1.005096435546875,-0.01873779296875
1768558761561814800,4.959814697265625,0.0616302490234375,-1.008392333984375,-0.02716064453125
1768558761571843800,4.96984375,0.07305908203125,-0.9909210205078125,-0.02783203125
1768558761581872600,4.97987255859375,0.0688934326171875,-1.0043487548828125,-0.0342254638671875
1768558761591901700,4.989901611328125,0.067535400390625,-0.995880126953125,-0.0369720458984375
1768558761601930800,4.9999306640625,0.03369140625,-1.000274658203125,-0.050994873046875
1768558761611959800,5.009959716796875,0.0463714599609375,-1.0018310546875,-0.0601959228515625
1768558761621989600,5.01998974609375,0.049285888671875,-0.9981536865234375,-0.073272705078125
1768558761632018700,5.030018798828125,0.0469970703125,-1.003509521484375,-0.06768798828125
1768558761642048000,5.040048095703125,0.024505615234375,-1.001007080078125,-0.056610107421875
1768558761652076800,5.050076904296875,0.031646728515625,-1.0019989013671875,-0.0508880615234375
1768558761662105900,5.06010595703125,0.0486907958984375,-0.99951171875,-0.040618896484375
1768558761672135000,5.070135009765625,0.0230712890625,-1.003662109375,-0.0259857177734375
1768558761682165000,5.0801650390625,0.0238800048828125,-1.004608154296875,-0.0230712890625
1768558761692193800,5.09019384765625,0.0422515869140625,-1.0004730224609375,-0.031005859375
1768558761702222800,5.100222900390625,0.0988006591796875,-0.996734619140625,-0.0290374755859375
1768558761712252000,5.110251953125,-0.034881591796875,-1.0122833251953125,-0.0310821533203125
1768558761722280700,5.12028076171875,-0.0197906494140625,-1.0010986328125,-0.0078125
1768558761732310800,5.130310791015625,0.08453369140625,-1.0015869140625,-0.0433197021484375
1768558761742339800,5.14033984375,0.0250091552734375,-1.0061492919921875,-0.023681640625
1768558761752369000,5.150368896484375,0.0021820068359375,-1.0065460205078125,-0.0437469482421875
1768558761762397700,5.160397705078125,0.0431060791015625,-0.9958038330078125,-0.069000244140625
1768558761772426800,5.1704267578125,0.0389251708984375,-0.9926605224609375,-0.072113037109375
1768558761782455800,5.180455810546875,-0.0108642578125,-1.01019287109375,-0.099578857421875
1768558761792485600,5.190485595703125,0.04937744140625,-0.985626220703125,-0.0989837646484375
1768558761802514700,5.2005146484375,0.0110321044921875,-1.007843017578125,-0.108489990234375
1768558761812543700,5.210543701171875,0.0091400146484375,-0.997467041015625,-0.0926055908203125
1768558761822572800,5.22057275390625,0.0112152099609375,-1.0029754638671875,-0.099334716796875
1768558761832601900,5.230601806640625,-0.012603759765625,-1.0028839111328125,-0.065093994140625
1768558761842631000,5.240630859375,-0.0118560791015625,-0.990997314453125,-0.0455169677734375
1768558761852661000,5.250660888671875,-0.0496978759765625,-1.0063934326171875,-0.0490570068359375
1768558761862689800,5.260689697265625,-0.04132080078125,-0.9981231689453125,-0.0470733642578125
1768558761872718800,5.27071875,-0.03363037109375,-0.9936065673828125,-0.0421600341796875
1768558761882748000,5.280747802734375,-0.04034423828125,-1.001708984375,-0.05474853515625
1768558761892776700,5.290776611328125,-0.0390777587890625,-1.00030517578125,-0.0467987060546875
1768558761902806800,5.300806884765625,-0.0373077392578125,-1.0055694580078125,-0.060760498046875
1768558761912835800,5.3108359375,-0.0310821533203125,-0.9959564208984375,-0.05609130859375
1768558761922865000,5.320864990234375,-0.039825439453125,-0.9971466064453125,-0.0549774169921875
1768558761932893700,5.330893798828125,-0.025604248046875,-0.991241455078125,-0.0728759765625
1768558761942922800,5.3409228515625,-0.050689697265625,-1.002288818359375,-0.0778045654296875
1768558761952952800,5.350952880859375,-0.0133819580078125,-0.994903564453125,-0.076324462890625
1768558761962981600,5.360981689453125,-0.0159454345703125,-0.999847412109375,-0.0640106201171875
1768558761973010700,5.3710107421875,-0.034088134765625,-0.9954833984375,-0.043243408203125
1768558761983039700,5.381039794921875,-0.019775390625,-1.005889892578125,-0.0268402099609375
1768558761993068800,5.39106884765625,-0.0126495361328125,-0.9908447265625,-0.0250701904296875
1768558762003097900,5.401097900390625,-0.0271453857421875,-0.9987945556640625,-0.038360595703125
1768558762013127700,5.411127685546875,-0.013519287109375,-1.0053253173828125,-0.0526123046875
1768558762023157000,5.421156982421875,-0.0086212158203125,-0.9980316162109375,-0.0675506591796875
1768558762033185800,5.431185791015625,-0.0151824951171875,-0.998016357421875,-0.084869384765625
1768558762043214800,5.44121484375,-0.0442047119140625,-0.997283935546875,-0.075103759765625
1768558762053244000,5.451243896484375,-0.055267333984375,-0.9957427978515625,-0.0717926025390625
1768558762063274000,5.46127392578125,-0.0486602783203125,-0.9998626708984375,-0.0542755126953125
1768558762073302800,5.471302734375,-0.088165283203125,-0.99371337890625,-0.0314178466796875
1768558762083331800,5.481331787109375,-0.0960845947265625,-0.9984283447265625,-0.0027008056640625
1768558762093361000,5.49136083984375,-0.13592529296875,-1.008636474609375,0.0043182373046875
1768558762103389700,5.5013896484375,-0.07379150390625,-0.98919677734375,0.0160675048828125
1768558762113418800,5.511418701171875,-0.0879364013671875,-1.004669189453125,0.0175323486328125
1768558762123448800,5.52144873046875,-0.0303955078125,-1.0004730224609375,0.011993408203125
1768558762133478000,5.531477783203125,0.01153564453125,-0.9990081787109375,-0.0039215087890625
1768558762143506700,5.541506591796875,0.060943603515625,-1.002532958984375,-0.0001983642578125
1768558762153535700,5.55153564453125,0.1134033203125,-1.008392333984375,-0.0133056640625
1768558762163564800,5.561564697265625,0.15191650390625,-1.007171630859375,-0.0193939208984375
1768558762173594600,5.5715947265625,0.1287078857421875,-1.0039215087890625,-0.0207061767578125
1768558762183623700,5.581623779296875,0.114776611328125,-1.003265380859375,-0.016876220703125
1768558762193653000,5.591653076171875,0.1005096435546875,-1.00933837890625,-0.024810791015625
1768558762203681800,5.601681884765625,0.1108856201171875,-0.9967041015625,-0.0115966796875
1768558762213710800,5.6117109375,0.047943115234375,-1.001708984375,-0.0142974853515625
1768558762223741000,5.621740966796875,0.02783203125,-1.0103607177734375,-0.011322021484375
1768558762233770000,5.63177001953125,0.0083160400390625,-0.99627685546875,-0.0185089111328125
1768558762243798800,5.641798828125,-0.07781982421875,-0.9954986572265625,-0.0246124267578125
1768558762253827800,5.651827880859375,-0.0637359619140625,-1.00592041015625,-0.0336151123046875
1768558762263857000,5.66185693359375,-0.05194091796875,-0.9988250732421875,-0.05584716796875
1768558762273887000,5.671886962890625,-0.048797607421875,-1.0015716552734375,-0.06866455078125
1768558762283915800,5.681915771484375,-0.0367889404296875,-0.9868011474609375,-0.0847625732421875
1768558762293944800,5.69194482421875,-0.0255584716796875,-1.0021209716796875,-0.113128662109375
1768558762303974000,5.701973876953125,-0.000335693359375,-0.9970703125,-0.1344757080078125
1768558762314002700,5.712002685546875,0.0323944091796875,-1.0006103515625,-0.1288299560546875
1768558762324032800,5.72203271484375,0.0338287353515625,-0.9903564453125,-0.11895751953125
1768558762334061800,5.732061767578125,0.05181884765625,-0.998321533203125,-0.0828399658203125
1768558762344090600,5.742090576171875,0.070831298828125,-1.00048828125,-0.0456390380859375
1768558762354120000,5.752119873046875,0.0434112548828125,-0.9982757568359375,0.035491943359375
1768558762364149000,5.76214892578125,0.03759765625,-1.005859375,0.0774383544921875
1768558762374179000,5.772178955078125,0.02996826171875,-1.013275146484375,0.1070709228515625
1768558762384208000,5.782207763671875,0.04132080078125,-1.009368896484375,0.1041412353515625
1768558762394237000,5.79223681640625,0.0240325927734375,-1.00518798828125,0.0768585205078125
1768558762404266200,5.802266357421875,-0.001312255859375,-1.00933837890625,0.0558013916015625
1768558762414295000,5.812294921875,-0.011688232421875,-0.9989776611328125,0.00860595703125
1768558762424324900,5.822324951171875,0.0033416748046875,-0.998199462890625,-0.0568389892578125
1768558762434354200,5.832354248046875,0.0430145263671875,-0.9951629638671875,-0.103240966796875
1768558762444383000,5.842383056640625,0.06988525390625,-0.996124267578125,-0.1506805419921875
1768558762454412000,5.852412109375,0.0496368408203125,-0.98980712890625,-0.1468963623046875
1768558762464441000,5.862441162109375,0.022674560546875,-1.006988525390625,-0.132965087890625
1768558762474471200,5.87247119140625,0.0325164794921875,-0.9808349609375,-0.117462158203125
1768558762484500000,5.8825,-0.02276611328125,-0.997406005859375,-0.0983123779296875
1768558762494529000,5.892529052734375,-0.04833984375,-0.9892578125,-0.0850067138671875
1768558762504558000,5.90255810546875,-0.0908050537109375,-0.982574462890625,-0.0908355712890625
1768558762514587000,5.9125869140625,-0.059326171875,-0.9934539794921875,-0.0928802490234375
1768558762524617000,5.922616943359375,-0.055633544921875,-0.9846649169921875,-0.1050872802734375
1768558762534646000,5.93264599609375,-0.099090576171875,-0.9925384521484375,-0.0947418212890625
1768558762544675000,5.942675048828125,-0.1345367431640625,-1.008087158203125,-0.0546417236328125
1768558762554704000,5.952703857421875,-0.1655426025390625,-0.9817962646484375,-0.0734405517578125
1768558762564733000,5.96273291015625,-0.1371612548828125,-0.992034912109375,-0.0645751953125
1768558762574763000,5.972762939453125,-0.1015167236328125,-0.9900054931640625,-0.0532379150390625
1768558762584792000,5.9827919921875,-0.1091461181640625,-0.992889404296875,-0.0778045654296875
1768558762594820900,5.99282080078125,-0.0626373291015625,-0.988525390625,-0.0650634765625
1768558762604850200,6.00285009765625,-0.020294189453125,-0.9052886962890625,-0.005615234375
1768558762614879200,6.012879150390625,-0.240264892578125,-1.1990203857421875,-0.1262359619140625
1768558762624908800,6.02290869140625,-0.1255645751953125,-1.108978271484375,-0.1278533935546875
1768558762634938000,6.032938232421875,0.32000732421875,-0.8028717041015625,0.063873291015625
1768558762644967200,6.04296728515625,-0.2144622802734375,-1.0979461669921875,-0.0488739013671875
1768558762654996000,6.052995849609375,0.01708984375,-0.950714111328125,0.005035400390625
1768558762665025000,6.06302490234375,-0.082611083984375,-1.01611328125,0.02880859375
1768558762675055000,6.07305517578125,-0.0940093994140625,-0.9872894287109375,0.0151824951171875
1768558762685084200,6.083084228515625,-0.063812255859375,-1.007354736328125,0.024932861328125
1768558762695113000,6.093113037109375,-0.0012359619140625,-0.9949798583984375,0.0180206298828125
1768558762705142000,6.10314208984375,-0.0145263671875,-1.002197265625,0.0072784423828125
1768558762715171000,6.113171142578125,-0.0111083984375,-0.9958953857421875,0.0007781982421875
1768558762725201200,6.123201171875,-0.01123046875,-0.9959259033203125,-0.004180908203125
1768558762735230000,6.13322998046875,0.08160400390625,-1.0127410888671875,0.0203399658203125
1768558762745259000,6.143259033203125,0.004364013671875,-1.0054931640625,0.0224761962890625
1768558762755288000,6.1532880859375,-0.05303955078125,-1.0051422119140625,0.0784149169921875
1768558762765316900,6.16331689453125,-0.0641021728515625,-0.9886322021484375,0.0521392822265625
1768558762775347000,6.173346923828125,-0.0174102783203125,-1.0019989013671875,-0.0511322021484375
1768558762785376000,6.1833759765625,-0.0757904052734375,-0.98583984375,-0.0884246826171875
1768558762795404800,6.19340478515625,-0.046844482421875,-1.008056640625,-0.0875091552734375
1768558762805434000,6.20343408203125,-0.0251312255859375,-0.988494873046875,-0.1656341552734375
1768558762815464000,6.2134638671875,-0.012237548828125,-0.9868316650390625,-0.179046630859375
1768558762825493000,6.223492919921875,-0.0074462890625,-1.00604248046875,-0.1610565185546875
1768558762835522000,6.23352197265625,-0.0350189208984375,-1.002899169921875,-0.1524810791015625
1768558762845551000,6.243551025390625,0.1016693115234375,-0.9676361083984375,-0.1890716552734375
1768558762855580200,6.253580078125,0.02056884765625,-1.0007171630859375,-0.2218475341796875
1768558762865610200,6.2636103515625,-0.148406982421875,-1.003662109375,-0.1212005615234375
1768558762875639000,6.27363916015625,-0.0337066650390625,-0.981658935546875,-0.14129638671875
1768558762885668000,6.283668212890625,0.0198516845703125,-1.0140380859375,-0.151641845703125
1768558762895697200,6.293697265625,0.0405731201171875,-0.98687744140625,-0.14288330078125
1768558762905726000,6.303725830078125,0.0194244384765625,-0.9985809326171875,-0.1743927001953125
1768558762915756000,6.313756103515625,-0.0308990478515625,-0.98193359375,-0.203826904296875
1768558762925785000,6.32378515625,0.0002593994140625,-1.0003662109375,-0.20465087890625
1768558762935814000,6.33381396484375,-0.02105712890625,-0.98333740234375,-0.1862640380859375
1768558762945843000,6.343843017578125,0.043365478515625,-1.0080108642578125,-0.1096954345703125
1768558762955873000,6.353873046875,-0.126678466796875,-0.9854278564453125,-0.1009063720703125
1768558762965902000,6.363902099609375,-0.0971527099609375,-0.99188232421875,-0.06744384765625
1768558762975931000,6.373930908203125,-0.103485107421875,-0.99884033203125,-0.0372467041015625
1768558762985960000,6.3839599609375,-0.1522674560546875,-1.0008697509765625,0.02081298828125
1768558762995989000,6.393989013671875,0.0255584716796875,-1.0086669921875,0.071075439453125
1768558763006019000,6.40401904296875,-0.001495361328125,-1.0013427734375,-0.013153076171875
1768558763016047900,6.4140478515625,-0.0375823974609375,-1.0053558349609375,0.0138397216796875
1768558763026077000,6.424076904296875,-0.17236328125,-0.994110107421875,0.0380096435546875
1768558763036106000,6.43410595703125,-0.1951904296875,-0.9949951171875,0.02325439453125
1768558763046135000,6.444135009765625,-0.203338623046875,-0.99859619140625,0.030517578125
1768558763056164900,6.454164794921875,-0.206268310546875,-0.99505615234375,0.0393829345703125
1768558763066194200,6.464194091796875,-0.1414337158203125,-1.0092010498046875,0.0046844482421875
1768558763076223200,6.47422314453125,-0.1404571533203125,-1.002532958984375,-0.0557098388671875
1768558763086252000,6.484251953125,-0.1932220458984375,-0.98004150390625,-0.110107421875
1768558763096282000,6.4942822265625,-0.218963623046875,-0.9778594970703125,-0.1632843017578125
1768558763106311200,6.504311279296875,-0.1249237060546875,-0.9947357177734375,-0.091217041015625
1768558763116340000,6.514340087890625,-0.001922607421875,-1.019195556640625,-0.05218505859375
1768558763126369000,6.524369140625,-0.0731201171875,-0.9881134033203125,-0.003631591796875
1768558763136398000,6.534398193359375,-0.2279815673828125,-0.982177734375,0.049072265625
1768558763146428200,6.54442822265625,-0.1965179443359375,-1.0028533935546875,-0.0326995849609375
1768558763156457000,6.55445703125,0.0387725830078125,-0.9923248291015625,-0.14837646484375
1768558763166486000,6.564486083984375,0.00543212890625,-0.9897613525390625,-0.1822357177734375
1768558763176515000,6.57451513671875,0.00555419921875,-1.001678466796875,-0.144866943359375
1768558763186543900,6.5845439453125,-0.0035247802734375,-0.9914093017578125,-0.17547607421875
1768558763196574000,6.594573974609375,0.0029144287109375,-0.9902496337890625,-0.18316650390625
1768558763206603000,6.60460302734375,-0.0343780517578125,-0.9957733154296875,-0.177734375
1768558763216632000,6.614632080078125,-0.0103302001953125,-0.992706298828125,-0.1798553466796875
1768558763226660900,6.624660888671875,-0.0128173828125,-0.9941558837890625,-0.1650390625
1768558763236691000,6.63469091796875,-0.0174560546875,-0.9925537109375,-0.15032958984375
1768558763246720000,6.644719970703125,0.0123291015625,-1.0060272216796875,-0.13507080078125
1768558763256748800,6.654748779296875,0.039794921875,-0.9960784912109375,-0.143524169921875
1768558763266778000,6.664778076171875,0.0250091552734375,-0.991424560546875,-0.150421142578125
1768558763276807200,6.67480712890625,-0.01904296875,-1.004791259765625,-0.0942230224609375
1768558763286837000,6.6848369140625,-0.0141448974609375,-0.998504638671875,-0.0851898193359375
1768558763296866000,6.694865966796875,-0.0315704345703125,-0.9909820556640625,-0.091064453125
1768558763306895000,6.70489501953125,-0.08636474609375,-0.9987030029296875,-0.027923583984375
1768558763316924200,6.714924072265625,-0.114837646484375,-0.998565673828125,-0.012176513671875
1768558763326954200,6.724954345703125,-0.1586151123046875,-0.994049072265625,-0.0242156982421875
1768558763336983000,6.734983154296875,-0.2207183837890625,-0.99053955078125,0.012054443359375
1768558763347012000,6.74501220703125,-0.2091064453125,-0.9945220947265625,0.0362548828125
1768558763357041200,6.755041259765625,-0.16510009765625,-0.9967193603515625,0.0318450927734375
1768558763367070200,6.7650703125,-0.1703338623046875,-0.994720458984375,0.0164794921875
1768558763377100300,6.775100341796875,-0.161407470703125,-1.006011962890625,-0.0026397705078125
1768558763387129000,6.785129150390625,-0.0956878662109375,-1.00347900390625,-0.032684326171875
1768558763397158100,6.795158203125,0.0482940673828125,-0.9975738525390625,-0.09637451171875
1768558763407187200,6.805187255859375,0.1375885009765625,-0.9936981201171875,-0.152984619140625
1768558763417217300,6.81521728515625,0.142822265625,-1.0103302001953125,-0.18548583984375
1768558763427246000,6.82524609375,0.2028961181640625,-0.9927978515625,-0.1423187255859375
1768558763437275100,6.835275146484375,0.0962371826171875,-1.0013275146484375,-0.073699951171875
1768558763447304200,6.84530419921875,-0.045318603515625,-1.0032196044921875,-0.0417938232421875
1768558763457333000,6.8553330078125,-0.0897674560546875,-0.9979400634765625,-0.013397216796875
1768558763467363000,6.865363037109375,-0.1844024658203125,-0.9949951171875,0.0072021484375
1768558763477392100,6.87539208984375,-0.263458251953125,-0.994873046875,0.02880859375
1768558763487421000,6.8854208984375,-0.3402099609375,-0.9842071533203125,0.067138671875
1768558763497450200,6.8954501953125,-0.32373046875,-0.989959716796875,0.08941650390625
1768558763507480000,6.90547998046875,-0.2976531982421875,-1.00115966796875,0.0552520751953125
1768558763517509000,6.915509033203125,-0.1680145263671875,-1.006072998046875,-0.000335693359375
1768558763527538200,6.9255380859375,-0.04302978515625,-0.98980712890625,-0.08050537109375
1768558763537567200,6.935567138671875,0.0532684326171875,-0.999755859375,-0.129302978515625
1768558763547596300,6.94559619140625,0.110748291015625,-1.00909423828125,-0.150970458984375
1768558763557626400,6.95562646484375,0.108551025390625,-0.993011474609375,-0.1479949951171875
1768558763567655200,6.9656552734375,0.05615234375,-1.0029754638671875,-0.1007232666015625
1768558763577684200,6.975684326171875,-0.0352020263671875,-0.998626708984375,-0.031707763671875
1768558763587713300,6.98571337890625,-0.1404571533203125,-0.993255615234375,0.0106964111328125
1768558763597743000,6.9957431640625,-0.2224578857421875,-0.996002197265625,0.06036376953125
1768558763607772200,7.005772216796875,-0.2373504638671875,-0.9991607666015625,0.0672607421875
1768558763617801200,7.01580126953125,-0.142730712890625,-0.98956298828125,0.0329742431640625
1768558763627830000,7.025830078125,-0.0705108642578125,-1.00860595703125,-0.0043792724609375
1768558763637859000,7.035859130859375,-0.0147247314453125,-1.004638671875,-0.028350830078125
1768558763647889200,7.04588916015625,-0.000030517578125,-0.9896697998046875,-0.0440826416015625
1768558763657918200,7.055918212890625,-0.1026458740234375,-1.0053863525390625,-0.026763916015625
1768558763667947000,7.065947021484375,-0.1205902099609375,-0.99871826171875,0.016143798828125
1768558763677976000,7.07597607421875,-0.1389007568359375,-0.99383544921875,0.00653076171875
1768558763688006100,7.086006103515625,-0.1356353759765625,-0.99664306640625,0.0068511962890625
1768558763698035200,7.09603515625,-0.1266326904296875,-0.9996490478515625,0.0056304931640625
1768558763708064000,7.10606396484375,-0.119598388671875,-0.997589111328125,-0.0175323486328125
1768558763718093000,7.116093017578125,-0.1004638671875,-1.0053558349609375,-0.040130615234375
1768558763728123100,7.126123046875,-0.0680084228515625,-0.991546630859375,-0.0292510986328125
1768558763738152000,7.13615185546875,-0.0996856689453125,-1.0105133056640625,-0.0224151611328125
1768558763748181000,7.146180908203125,-0.05145263671875,-0.9872283935546875,-0.02215576171875
1768558763758210300,7.156210205078125,-0.101531982421875,-1.0075531005859375,-0.0254058837890625
1768558763768239400,7.1662392578125,-0.0803680419921875,-0.99249267578125,-0.02069091796875
1768558763778269000,7.17626904296875,-0.0647125244140625,-0.9994659423828125,-0.0335235595703125
1768558763788298200,7.18629833984375,-0.003204345703125,-0.999847412109375,-0.041107177734375
1768558763798327300,7.196327392578125,0.123382568359375,-1.0027923583984375,-0.07440185546875
1768558763808356000,7.206356201171875,0.2056732177734375,-0.99609375,-0.08013916015625
1768558763818386200,7.21638623046875,0.14251708984375,-1.00128173828125,-0.01702880859375
1768558763828415200,7.226415283203125,0.0226593017578125,-1.0219573974609375,0.0741119384765625
1768558763838444300,7.2364443359375,0.022857666015625,-0.998748779296875,0.094818115234375
1768558763848473000,7.24647314453125,-0.0181732177734375,-1.010986328125,0.1599273681640625
1768558763858502100,7.256502197265625,-0.1500244140625,-0.9865570068359375,0.0142974853515625
1768558763868532200,7.2665322265625,-0.27899169921875,-0.9934539794921875,-0.173370361328125
1768558763878561300,7.276561279296875,-0.134429931640625,-0.99725341796875,-0.183441162109375
1768558763888590000,7.286590087890625,-0.1052703857421875,-1.0001220703125,-0.0437469482421875
1768558763898619100,7.296619140625,-0.1287078857421875,-0.9923248291015625,-0.077911376953125
1768558763908649200,7.306649169921875,0.001373291015625,-0.991973876953125,-0.0661163330078125
1768558763918678000,7.316677978515625,0.1393280029296875,-1.00762939453125,-0.015167236328125
1768558763928707000,7.32670703125,0.1557464599609375,-1.0135498046875,-0.032012939453125
1768558763938736000,7.336736083984375,0.2505340576171875,-1.016448974609375,-0.0489044189453125
1768558763948766200,7.34676611328125,0.323760986328125,-1.02001953125,-0.0861358642578125
1768558763958795000,7.356794921875,0.3717193603515625,-1.0235748291015625,-0.1230316162109375
1768558763968824000,7.366823974609375,0.385009765625,-1.0022735595703125,-0.171966552734375
1768558763978853000,7.37685302734375,0.364349365234375,-1.003387451171875,-0.2398681640625
1768558763988883200,7.38688330078125,0.3359832763671875,-1.0067291259765625,-0.2548675537109375
1768558763998912000,7.396912109375,0.32598876953125,-1.013885498046875,-0.2481689453125
1768558764008941000,7.406941162109375,0.319091796875,-1.0035400390625,-0.197296142578125
1768558764018970400,7.416970458984375,0.2360382080078125,-1.01702880859375,-0.104095458984375
1768558764028999200,7.426999267578125,0.0944366455078125,-0.9926300048828125,-0.0243988037109375
1768558764039029200,7.437029296875,0.0360565185546875,-1.01678466796875,-0.04058837890625
1768558764049058300,7.447058349609375,0.0570220947265625,-0.9915618896484375,-0.08465576171875
1768558764059087000,7.457087158203125,0.0767364501953125,-0.9908599853515625,-0.09503173828125
1768558764069116200,7.4671162109375,0.1332855224609375,-0.9976806640625,-0.0678863525390625
1768558764079146200,7.477146240234375,0.2033538818359375,-0.9969635009765625,-0.0688629150390625
1768558764089175300,7.48717529296875,0.256591796875,-1.004058837890625,-0.0741424560546875
1768558764099204000,7.4972041015625,0.1747283935546875,-0.999237060546875,-0.011444091796875
1768558764109233200,7.507233154296875,0.053253173828125,-1.015380859375,0.0309295654296875
1768558764119263200,7.51726318359375,0.0238037109375,-0.979766845703125,0.0456695556640625
1768558764129292300,7.527292236328125,0.034820556640625,-1.0240020751953125,-0.012115478515625
1768558764139321000,7.537321044921875,0.0048828125,-1.0176849365234375,0.0874786376953125
1768558764149350100,7.54735009765625,-0.0361785888671875,-0.9652862548828125,-0.1112213134765625
1768558764159380200,7.557380126953125,0.2503509521484375,-1.1478729248046875,-0.2556610107421875
1768558764169409000,7.567408935546875,-0.229827880859375,-1.6005401611328125,-0.388397216796875
1768558764179438000,7.57743798828125,0.1525726318359375,-0.3135833740234375,0.1741180419921875
1768558764189467100,7.587467041015625,0.4397125244140625,-0.7975616455078125,0.1453094482421875
1768558764199496000,7.597495849609375,-0.09808349609375,-1.1675262451171875,-0.310943603515625
1768558764209526000,7.607526123046875,-0.3918914794921875,-1.221405029296875,-0.201873779296875
1768558764219555000,7.61755517578125,0.03826904296875,-0.750213623046875,0.0039520263671875
1768558764229584100,7.627584228515625,0.0876922607421875,-1.0955047607421875,-0.188690185546875
1768558764239613200,7.63761328125,0.028228759765625,-0.95428466796875,-0.0921173095703125
1768558764249643000,7.64764306640625,0.10198974609375,-1.0142822265625,-0.15045166015625
1768558764259672000,7.657672119140625,0.090240478515625,-0.9870452880859375,-0.1964263916015625
1768558764269701000,7.667701171875,0.0621795654296875,-0.9961395263671875,-0.117828369140625
1768558764279730200,7.677730224609375,-0.0015716552734375,-0.9984893798828125,-0.136077880859375
1768558764289760000,7.687760009765625,0.0370025634765625,-0.9907989501953125,-0.2002105712890625
1768558764299789300,7.697789306640625,0.0998992919921875,-0.9914398193359375,-0.224456787109375
1768558764309818000,7.707818115234375,0.08709716796875,-0.99542236328125,-0.23638916015625
1768558764319847200,7.71784716796875,0.052703857421875,-0.9959564208984375,-0.24798583984375
1768558764329877200,7.727877197265625,-0.00762939453125,-0.9842529296875,-0.251007080078125
1768558764339906300,7.73790625,-0.064544677734375,-1.0164794921875,-0.269561767578125
1768558764349935000,7.74793505859375,-0.069366455078125,-0.9652099609375,-0.220245361328125
1768558764359963600,7.757963623046875,-0.052154541015625,-0.998016357421875,-0.22601318359375
1768558764369993500,7.767993408203125,-0.082122802734375,-1.00213623046875,-0.1858978271484375
1768558764380022500,7.7780224609375,-0.139862060546875,-0.986968994140625,-0.197479248046875
1768558764390051600,7.788051513671875,-0.1194305419921875,-0.9799652099609375,-0.235504150390625
1768558764400080400,7.798080322265625,-0.07098388671875,-0.9967498779296875,-0.2551727294921875
1768558764410110500,7.8081103515625,-0.0432586669921875,-0.972869873046875,-0.276092529296875
1768558764420139500,7.818139404296875,-0.022796630859375,-1.0246124267578125,-0.27423095703125
1768558764430168600,7.82816845703125,-0.0584564208984375,-0.973175048828125,-0.1894989013671875
1768558764440197400,7.838197265625,-0.073638916015625,-0.9795684814453125,-0.1759033203125
1768558764450226400,7.848226318359375,-0.055419921875,-1.0069427490234375,-0.167938232421875
1768558764460256500,7.858256591796875,-0.1044921875,-0.9956817626953125,-0.1593475341796875
1768558764470285600,7.86828564453125,-0.1105499267578125,-0.996826171875,-0.14752197265625
1768558764480314400,7.878314453125,-0.063079833984375,-0.96923828125,-0.1184234619140625
1768558764490343700,7.88834375,-0.05865478515625,-0.9994659423828125,-0.2234954833984375
1768558764500373500,7.89837353515625,-0.108551025390625,-0.948089599609375,-0.24627685546875
1768558764510402600,7.908402587890625,-0.1426239013671875,-1.0235443115234375,-0.25946044921875
1768558764520431600,7.918431640625,-0.106048583984375,-0.9615631103515625,-0.1838226318359375
1768558764530460700,7.928460693359375,-0.1295623779296875,-1.00457763671875,-0.1843719482421875
1768558764540490800,7.93849072265625,-0.1559906005859375,-0.9736785888671875,-0.14276123046875
1768558764550519600,7.94851953125,-0.186920166015625,-1.0052337646484375,-0.143524169921875
1768558764560548600,7.958548583984375,-0.19830322265625,-0.96929931640625,-0.0865325927734375
1768558764570577700,7.96857763671875,-0.1888885498046875,-1.004119873046875,-0.0290679931640625
1768558764580607700,7.978607666015625,-0.1635284423828125,-0.997039794921875,0.0054779052734375
1768558764590636500,7.988636474609375,-0.2099609375,-0.9816741943359375,0.0572967529296875
1768558764600665600,7.99866552734375,-0.153045654296875,-0.9956207275390625,0.0783538818359375
1768558764610694700,8.008694580078124,-0.1406097412109375,-0.995635986328125,0.0358734130859375
1768558764620724700,8.018724853515625,-0.185638427734375,-1.007659912109375,0.0281982421875
1768558764630753500,8.02875341796875,-0.211090087890625,-0.96923828125,0.0646209716796875
1768558764640782600,8.038782470703126,-0.2263336181640625,-1.0239410400390625,0.0462646484375
1768558764650811600,8.048811767578124,-0.1902008056640625,-0.9744720458984375,0.07269287109375
1768558764660841500,8.058841552734375,-0.162841796875,-1.00054931640625,0.0184173583984375
1768558764670870500,8.06887060546875,-0.1523895263671875,-1.0030517578125,0.0025634765625
1768558764680899600,8.078899658203126,-0.12506103515625,-0.981353759765625,0.018463134765625
1768558764690928400,8.088928466796874,-0.05987548828125,-1.021270751953125,-0.0511474609375
1768558764700958500,8.09895849609375,-0.025054931640625,-0.987884521484375,-0.0915679931640625
1768558764710987500,8.108987548828125,0.0001220703125,-1.0055999755859375,-0.1364288330078125
1768558764721016600,8.1190166015625,0.04150390625,-0.99188232421875,-0.139892578125
1768558764731045400,8.12904541015625,0.0651397705078125,-1.0106353759765625,-0.1493377685546875
1768558764741074700,8.13907470703125,0.0673675537109375,-1.0043182373046875,-0.132598876953125
1768558764751104500,8.1491044921875,0.0608673095703125,-0.9976348876953125,-0.0621337890625
1768558764761133600,8.159133544921875,0.035797119140625,-1.0142364501953125,-0.06951904296875
1768558764771162600,8.16916259765625,0.070709228515625,-0.9922637939453125,-0.0776824951171875
1768558764781191700,8.179191650390624,0.0626678466796875,-1.0095062255859375,-0.1087646484375
1768558764791221500,8.189221435546875,0.07244873046875,-0.9565582275390625,-0.09698486328125
1768558764801250600,8.19925048828125,0.0525054931640625,-1.0463409423828125,-0.1026153564453125
1768558764811279600,8.209279541015626,0.0106658935546875,-0.9710693359375,0.016815185546875
1768558764821308700,8.21930859375,-0.0274505615234375,-1.0070037841796875,0.05352783203125
1768558764831338800,8.2293388671875,-0.040008544921875,-0.9995880126953125,0.089385986328125
1768558764841367600,8.239367431640625,-0.09600830078125,-0.9873809814453125,0.14581298828125
1768558764851396600,8.249396728515626,-0.1925811767578125,-1.00372314453125,0.162445068359375
1768558764861425700,8.25942578125,-0.1845855712890625,-0.997344970703125,0.1664581298828125
1768558764871455700,8.269455810546875,-0.1715087890625,-0.9831390380859375,0.1443634033203125
1768558764881484500,8.279484619140625,-0.35675048828125,-1.1629486083984375,0.011810302734375
1768558764891513600,8.289513671875,-0.15960693359375,-0.898773193359375,0.2208404541015625
1768558764901542700,8.299542724609376,-0.0391082763671875,-1.0073699951171875,0.0453948974609375
1768558764911572500,8.309572509765625,-0.233612060546875,-1.0102386474609375,0.0403900146484375
1768558764921601500,8.3196015625,-0.05035400390625,-0.989471435546875,0.0104522705078125
1768558764931630600,8.329630615234375,-0.0118255615234375,-0.9924163818359375,-0.0228424072265625
1768558764941659400,8.339659423828126,-0.0331878662109375,-1.011016845703125,-0.0147705078125
1768558764951689500,8.349689453125,0.10174560546875,-0.9984130859375,-0.0363311767578125
1768558764961718500,8.359718505859375,0.0911102294921875,-1.0094757080078125,-0.0854339599609375
1768558764971747600,8.36974755859375,-0.02166748046875,-0.9976959228515625,0.0090789794921875
1768558764981776400,8.3797763671875,-0.0640869140625,-1.00927734375,-0.040130615234375
1768558764991806500,8.389806396484374,0.115966796875,-0.973388671875,-0.0171661376953125
1768558765001835500,8.39983544921875,-0.16064453125,-0.979736328125,0.00531005859375
1768558765011864600,8.409864501953125,-0.14300537109375,-1.02606201171875,0.02520751953125
1768558765021893400,8.419893310546875,-0.0122528076171875,-0.9639434814453125,0.049530029296875
1768558765031923500,8.42992333984375,-0.0724945068359375,-1.024993896484375,0.011749267578125
1768558765041952500,8.439952392578125,-0.0347442626953125,-0.9907379150390625,0.0052490234375
1768558765051981600,8.449981689453125,-0.05889892578125,-1.00518798828125,-0.0105133056640625
1768558765062010600,8.4600107421875,-0.1186981201171875,-1.001922607421875,-0.0213775634765625
1768558765072040400,8.47004052734375,-0.1207122802734375,-0.988433837890625,-0.0403289794921875
1768558765082069800,8.48006982421875,-0.1576385498046875,-0.9939727783203125,-0.0524749755859375
1768558765092098600,8.4900986328125,-0.288543701171875,-0.9843902587890625,-0.01947021484375
1768558765102127600,8.500127685546875,-0.283538818359375,-1.0000762939453125,0.0212249755859375
1768558765112157700,8.51015771484375,-0.0877532958984375,-0.997161865234375,0.1101226806640625
1768558765122186800,8.520186767578124,-0.161529541015625,-1.001007080078125,0.07574462890625
1768558765132215600,8.530215576171875,-0.0572662353515625,-1.013336181640625,0.0591888427734375
1768558765142244600,8.54024462890625,0.047943115234375,-0.994476318359375,0.01629638671875
1768558765152274700,8.550274658203126,0.01177978515625,-1.00048828125,-0.0644989013671875
1768558765162303500,8.560303466796874,0.0324554443359375,-0.9989776611328125,-0.099761962890625
1768558765172332500,8.57033251953125,0.04241943359375,-1.0000457763671875,-0.1316070556640625
1768558765182361600,8.580361572265625,0.08294677734375,-1.0033111572265625,-0.1401519775390625
1768558765192391700,8.5903916015625,0.0759735107421875,-0.9965057373046875,-0.1211700439453125
1768558765202420500,8.60042041015625,0.02490234375,-0.9921722412109375,-0.0766754150390625
1768558765212449500,8.610449462890625,-0.0313720703125,-1.014923095703125,-0.0680389404296875
1768558765222478600,8.620478515625,-0.0243072509765625,-0.9860992431640625,0.005828857421875
1768558765232508700,8.6305087890625,-0.0200042724609375,-1.0041351318359375,0.0055389404296875
1768558765242537500,8.640537353515626,0.01446533203125,-1.0074615478515625,0.012664794921875
1768558765252566500,8.65056640625,-0.0186614990234375,-0.983673095703125,0.012237548828125
1768558765262595600,8.660595703125,-0.029571533203125,-1.0190582275390625,0.0112762451171875
1768558765272625400,8.67062548828125,-0.059326171875,-0.98883056640625,0.0251617431640625
1768558765282654500,8.680654541015626,-0.0714569091796875,-1.006805419921875,0.022735595703125
1768558765292683500,8.69068359375,-0.05401611328125,-1.0048980712890625,0.0457000732421875
1768558765302712600,8.700712646484375,-0.0221710205078125,-0.996429443359375,0.0691375732421875
1768558765312742400,8.710742431640625,-0.063720703125,-1.0122222900390625,0.1028900146484375
1768558765322771500,8.720771484375,-0.0068206787109375,-1.004058837890625,0.1361846923828125
1768558765332800500,8.730800537109374,-0.0176239013671875,-1.012786865234375,0.163909912109375
1768558765342829600,8.74082958984375,-0.0475616455078125,-1.00726318359375,0.1706085205078125
1768558765352859400,8.750859375,-0.06817626953125,-1.0084381103515625,0.189697265625
1768558765362888400,8.760888427734375,-0.0355682373046875,-1.0025177001953125,0.1955108642578125
1768558765372917500,8.77091748046875,-0.1581573486328125,-1.0069580078125,0.1482391357421875
1768558765382946600,8.780946533203124,-0.0708465576171875,-1.004302978515625,0.1292572021484375
1768558765392976400,8.790976318359375,-0.1864166259765625,-0.994476318359375,0.093017578125
1768558765403005400,8.80100537109375,-0.0880126953125,-1.0119781494140625,0.068359375
1768558765413034500,8.811034423828126,0.012664794921875,-0.981292724609375,0.090728759765625
1768558765423063300,8.821063232421874,-0.1260223388671875,-1.028656005859375,0.064971923828125
1768558765433093400,8.83109326171875,0.0830535888671875,-0.992034912109375,0.0917816162109375
1768558765443122400,8.841122314453125,-0.0727691650390625,-1.0110321044921875,0.080780029296875
1768558765453151500,8.8511513671875,-0.0063629150390625,-1.0050201416015625,0.0979156494140625
1768558765463180300,8.86118017578125,0.026092529296875,-1.0051116943359375,0.115966796875
1768558765473210400,8.87121044921875,-0.05523681640625,-1.018096923828125,0.1098785400390625
1768558765483239400,8.881239501953125,-0.01708984375,-0.9980316162109375,0.0949859619140625
1768558765493268500,8.8912685546875,-0.1259002685546875,-1.0012664794921875,0.0391998291015625
1768558765503297300,8.90129736328125,-0.0842742919921875,-1.0019989013671875,0.025634765625
1768558765513327400,8.911327392578125,-0.1519927978515625,-0.998870849609375,0.0321502685546875
1768558765523356400,8.9213564453125,-0.0700225830078125,-0.9957275390625,0.0329742431640625
1768558765533385200,8.93138525390625,-0.083709716796875,-0.99481201171875,0.0313873291015625
1768558765543414300,8.941414306640626,0.0006561279296875,-1.001220703125,0.019683837890625
1768558765553444400,8.9514443359375,0.001129150390625,-1.00567626953125,-0.00408935546875
1768558765563473400,8.961473388671875,-0.003082275390625,-1.003143310546875,0.00439453125
1768558765573502200,8.971502197265625,0.0598297119140625,-1.001678466796875,0.0034637451171875
1768558765583531300,8.98153125,0.003143310546875,-1.0099029541015625,0.009368896484375
1768558765593561300,8.991561279296874,0.048553466796875,-0.999664306640625,0.01007080078125
1768558765603590400,9.00159033203125,0.026611328125,-1.004913330078125,0.0082550048828125
1768558765613619200,9.011619140625,-0.0075225830078125,-1.0024566650390625,0.007843017578125
1768558765623648500,9.0216484375,-0.002960205078125,-1.001190185546875,0.001007080078125
1768558765633678300,9.03167822265625,-0.0610504150390625,-0.9975738525390625,0.0125732421875
1768558765643707400,9.041707275390625,-0.0832672119140625,-0.991912841796875,0.05364990234375
1768558765653736400,9.051736328125,-0.061187744140625,-1.00238037109375,0.0537261962890625
1768558765663765500,9.061765625,-0.0883636474609375,-0.99554443359375,0.093170166015625
1768558765673795600,9.071795654296874,-0.0508575439453125,-0.99542236328125,0.0806732177734375
1768558765683824400,9.081824462890625,-0.073028564453125,-0.9979400634765625,0.0908966064453125
1768558765693853400,9.091853515625,-0.0544281005859375,-1.0021209716796875,0.095794677734375
1768558765703882500,9.101882568359375,-0.0497894287109375,-1.010894775390625,0.0741729736328125
1768558765713912600,9.11191259765625,-0.06549072265625,-0.9914398193359375,0.0850067138671875
1768558765723941400,9.12194140625,-0.0816650390625,-1.004852294921875,0.0509490966796875
1768558765733970400,9.131970458984375,-0.07073974609375,-1.003509521484375,0.0285797119140625
1768558765743999500,9.14199951171875,-0.0782318115234375,-1.0000762939453125,0.036468505859375
1768558765754029600,9.152029541015626,-0.0709228515625,-0.9706268310546875,0.06939697265625
1768558765764058400,9.162058349609374,0.0837249755859375,-0.9058685302734375,0.1150970458984375
1768558765774087400,9.17208740234375,-0.442291259765625,-1.4167938232421875,-0.198333740234375
1768558765784116500,9.182116455078125,0.10546875,-0.6396331787109375,0.30224609375
1768558765794146300,9.192146240234376,0.1136016845703125,-1.1113739013671875,-0.0674591064453125
1768558765804175400,9.20217529296875,-0.1857452392578125,-1.0051727294921875,-0.002227783203125
1768558765814204400,9.212204345703125,0.0564727783203125,-0.96966552734375,0.0665435791015625
1768558765824234500,9.222234375,-0.097930908203125,-1.0239105224609375,0.054962158203125
1768558765834263300,9.23226318359375,0.007843017578125,-1.0055084228515625,0.0775146484375
1768558765844292400,9.242292236328124,-0.02099609375,-0.9925384521484375,0.0662841796875
1768558765854321400,9.2523212890625,-0.059600830078125,-1.00885009765625,0.040924072265625
1768558765864351500,9.2623515625,0.0033721923828125,-1.0043792724609375,0.0235137939453125
1768558765874380300,9.27238037109375,-0.0020904541015625,-1.0113525390625,0.0257720947265625
1768558765884409300,9.282409423828126,0.080963134765625,-0.9983062744140625,0.015045166015625
1768558765894438400,9.2924384765625,0.0443115234375,-1.001190185546875,0.0022735595703125
1768558765904468200,9.30246826171875,0.01348876953125,-1.0052642822265625,0.001800537109375
1768558765914497300,9.312497314453125,0.0226593017578125,-1.0020904541015625,0.0062713623046875
1768558765924526300,9.3225263671875,0.0044097900390625,-1.007171630859375,0.0082550048828125
1768558765934555400,9.332555419921874,-0.0441741943359375,-0.9906768798828125,0.0429840087890625
1768558765944585200,9.342585205078125,-0.069976806640625,-0.991851806640625,0.0821533203125
1768558765954614500,9.352614501953125,-0.0842132568359375,-1.015472412109375,0.099395751953125
1768558765964643600,9.3626435546875,-0.0930938720703125,-0.999359130859375,0.1175537109375
1768558765974672400,9.37267236328125,-0.1042938232421875,-1.0025787353515625,0.10662841796875
1768558765984702500,9.382702392578125,-0.12310791015625,-1.0018310546875,0.087646484375
1768558765994731500,9.3927314453125,-0.134185791015625,-0.9979248046875,0.0830841064453125
1768558766004760600,9.402760498046876,-0.111785888671875,-0.993194580078125,0.0791015625
1768558766014789400,9.412789306640626,-0.0998077392578125,-1.00897216796875,0.0374298095703125
1768558766024819500,9.4228193359375,-0.0506439208984375,-1.00079345703125,0.0374603271484375
1768558766034848500,9.4328486328125,0.01220703125,-1.004547119140625,0.014556884765625
1768558766044877300,9.442877197265625,-0.0169219970703125,-1.0012054443359375,0.01300048828125
1768558766054906400,9.45290625,0.0145721435546875,-1.000457763671875,0.0068511962890625
1768558766064936400,9.4629365234375,0.0169219970703125,-0.996612548828125,0.0206756591796875
1768558766074965500,9.472965576171875,0.0159454345703125,-1.0178070068359375,-0.0099639892578125
1768558766084994300,9.482994384765625,-0.0147705078125,-1.005950927734375,-0.01763916015625
1768558766095023400,9.4930234375,-0.0121917724609375,-0.98931884765625,-0.005279541015625
1768558766105053400,9.503053466796874,-0.0569915771484375,-1.00799560546875,-0.0168304443359375
1768558766115082500,9.51308251953125,-0.086639404296875,-1.000244140625,0.0044097900390625
1768558766125111300,9.523111328125,-0.1061553955078125,-0.9955902099609375,-0.0033721923828125
1768558766135140400,9.533140380859376,-0.0804290771484375,-0.9938201904296875,-0.022918701171875
1768558766145170400,9.54317041015625,-0.090850830078125,-0.9958953857421875,-0.004058837890625
1768558766155199200,9.55319921875,-0.004791259765625,-0.980712890625,0.0159912109375
1768558766165228300,9.563228271484375,-0.046539306640625,-1.0133209228515625,-0.04693603515625
1768558766175258400,9.57325830078125,0.0120697021484375,-1.0070953369140625,-0.0371246337890625
1768558766185287400,9.583287353515624,0.005340576171875,-0.9746246337890625,-0.026397705078125
1768558766195316200,9.593316162109375,-0.129547119140625,-1.0136871337890625,-0.0994415283203125
1768558766205345300,9.60334521484375,0.0297088623046875,-0.97064208984375,-0.0357818603515625
1768558766215375400,9.613375244140625,-0.0767059326171875,-1.00579833984375,-0.0620574951171875
1768558766225404400,9.623404296875,-0.03338623046875,-0.98406982421875,-0.017974853515625
1768558766235433200,9.63343310546875,-0.088348388671875,-0.9818572998046875,0.00738525390625
1768558766245462500,9.643462646484375,-0.1885833740234375,-1.0995330810546875,-0.0597381591796875
1768558766255492400,9.653492431640625,-0.099853515625,-0.9667816162109375,0.0588226318359375
1768558766265521400,9.663521484375,-0.0014190673828125,-1.0204315185546875,0.0323028564453125
1768558766275550500,9.673550537109374,-0.0662994384765625,-0.998443603515625,0.0296630859375
1768558766285579500,9.68357958984375,0.0169677734375,-1.0017852783203125,0.0357513427734375
1768558766295609600,9.693609619140625,-0.0723419189453125,-1.009063720703125,0.028717041015625
1768558766305638400,9.703638427734376,-0.0462188720703125,-0.9814910888671875,0.0421142578125
1768558766315667500,9.71366748046875,-0.0948333740234375,-1.0179901123046875,0.0789031982421875
1768558766325696500,9.723696533203125,-0.3311920166015625,-0.996826171875,0.0713958740234375
1768558766335726600,9.7337265625,-0.033477783203125,-1.019561767578125,0.09564208984375
1768558766345755400,9.74375537109375,0.041748046875,-0.95416259765625,0.0750579833984375
1768558766355784700,9.75378466796875,-0.261322021484375,-1.0322418212890625,-0.0042266845703125
1768558766365813800,9.763813720703125,0.0518951416015625,-0.9682769775390625,0.044952392578125
1768558766375843800,9.77384375,-0.1540985107421875,-1.0178985595703125,-0.008880615234375
1768558766385873000,9.783872802734376,0.0138702392578125,-0.9952392578125,0.0242919921875
1768558766395901700,9.793901611328126,-0.015106201171875,-1.006011962890625,-0.01123046875
1768558766405930800,9.8039306640625,0.0690460205078125,-0.9977264404296875,-0.003662109375
1768558766415960800,9.8139609375,-0.048370361328125,-0.995269775390625,-0.0163421630859375
1768558766425990000,9.823989990234375,0.0376129150390625,-1.009124755859375,-0.0456695556640625
1768558766436018700,9.834018798828126,0.04071044921875,-1.00213623046875,-0.0348358154296875
1768558766446048800,9.844048828125,-0.0257415771484375,-1.00042724609375,-0.022918701171875
1768558766456077800,9.854077880859375,-0.05047607421875,-1.003509521484375,-0.020843505859375
1768558766466106600,9.864106689453125,-0.0624542236328125,-1.00579833984375,-0.0129547119140625
1768558766476135700,9.8741357421875,-0.08953857421875,-0.99700927734375,-0.0054168701171875
1768558766486165800,9.884165771484374,-0.0544586181640625,-0.9928741455078125,0.0101776123046875
1768558766496194800,9.89419482421875,-0.0674896240234375,-1.0026702880859375,0.0012664794921875
1768558766506223600,9.9042236328125,-0.078369140625,-0.9951934814453125,-0.005126953125
1768558766516252700,9.914252685546876,-0.0650787353515625,-1.011016845703125,0.00677490234375
1768558766526282800,9.92428271484375,-0.0868377685546875,-0.9933319091796875,0.0301971435546875
1768558766536311800,9.934311767578125,-0.077789306640625,-1.007659912109375,0.0595245361328125
1768558766546340600,9.944340576171875,-0.0967254638671875,-1.00140380859375,0.07855224609375
1768558766556369700,9.95436962890625,-0.0911865234375,-0.991973876953125,0.085784912109375
1768558766566399700,9.964399658203124,-0.1219329833984375,-0.99444580078125,0.072357177734375
1768558766576428500,9.974428466796875,-0.1446685791015625,-1.0062255859375,0.065948486328125
1768558766586457900,9.984457763671875,-0.1583404541015625,-0.98785400390625,0.0688934326171875
1768558766596487000,9.99448681640625,-0.1176605224609375,-0.9984130859375,0.0567169189453125
1768558766606516700,10.004516845703124,-0.1609649658203125,-1.0016937255859375,0.0563507080078125
1768558766616545800,10.0145458984375,-0.15753173828125,-1.0027923583984375,0.0553436279296875
1768558766626574800,10.024574951171875,-0.119171142578125,-0.99267578125,0.04010009765625
1768558766636604700,10.034604736328125,-0.1419525146484375,-1.0021820068359375,0.0137939453125
1768558766646634000,10.044634033203126,-0.1348876953125,-0.99609375,-0.0183258056640625
1768558766656662800,10.054662841796874,-0.0869903564453125,-0.991607666015625,-0.0469818115234375
1768558766666691800,10.06469189453125,-0.0887908935546875,-1.001190185546875,-0.0688018798828125
1768558766676722000,10.074721923828125,-0.05255126953125,-0.994171142578125,-0.0535125732421875
1768558766686751000,10.0847509765625,-0.0044708251953125,-1.007049560546875,-0.0636138916015625
1768558766696779800,10.09477978515625,-0.0157012939453125,-0.988800048828125,-0.088104248046875
1768558766706808800,10.104808837890625,-0.0521240234375,-1.00787353515625,-0.1056976318359375
1768558766716839000,10.1148388671875,-0.049346923828125,-0.9880523681640625,-0.095428466796875
1768558766726867700,10.12486767578125,-0.08624267578125,-0.9946441650390625,-0.0944976806640625
1768558766736896800,10.134896728515624,-0.027099609375,-0.98492431640625,-0.08026123046875
1768558766746925800,10.14492578125,-0.0711517333984375,-1.000762939453125,-0.1029815673828125
1768558766756956000,10.154955810546875,-0.0757293701171875,-1.0098419189453125,-0.0772857666015625
1768558766766984700,10.164984619140625,-0.0040435791015625,-0.97210693359375,-0.0272979736328125
1768558766777013800,10.175013671875,-0.120758056640625,-1.0128936767578125,-0.0800628662109375
1768558766787042800,10.185042724609374,-0.066436767578125,-0.9942474365234375,-0.0020294189453125
1768558766797073000,10.195072998046875,-0.0595703125,-0.992279052734375,-0.0164947509765625
1768558766807101700,10.205101806640625,-0.1248016357421875,-0.999298095703125,-0.0372314453125
1768558766817130800,10.215130859375,-0.0809326171875,-1.0001068115234375,-0.0415496826171875
1768558766827160800,10.225160888671875,-0.1024627685546875,-0.9972991943359375,-0.0453033447265625
1768558766837189600,10.235189697265625,-0.0341796875,-0.9868927001953125,-0.044708251953125
1768558766847218700,10.24521875,-0.01092529296875,-1.0040283203125,-0.053619384765625
1768558766857247700,10.255247802734376,0.013092041015625,-1.004486083984375,-0.0407257080078125
1768558766867277800,10.26527783203125,0.00390625,-0.9991607666015625,-0.0179901123046875
1768558766877306600,10.275306640625,-0.0353546142578125,-0.990081787109375,-0.0091705322265625
1768558766887335700,10.285335693359375,-0.119171142578125,-1.0189056396484375,-0.0228271484375
1768558766897364700,10.29536474609375,-0.0791778564453125,-0.993255615234375,-0.00775146484375
1768558766907394800,10.305394775390624,-0.1179351806640625,-1.0034942626953125,-0.0389251708984375
1768558766917423600,10.315423583984375,-0.0999298095703125,-0.9885406494140625,-0.0213775634765625
1768558766927453000,10.325452880859375,-0.10321044921875,-0.9994049072265625,-0.0328521728515625
1768558766937482000,10.33548193359375,-0.0888519287109375,-1.006256103515625,-0.0287017822265625
1768558766947511600,10.345511474609374,-0.1104736328125,-0.9847412109375,-0.0482177734375
1768558766957540900,10.355540771484375,-0.11224365234375,-0.9996795654296875,-0.0282440185546875
1768558766967570000,10.36556982421875,-0.0850372314453125,-0.995330810546875,-0.0171661376953125
1768558766977599700,10.375599853515626,-0.0904998779296875,-1.0012359619140625,0.007568359375
1768558766987628800,10.38562890625,-0.04486083984375,-0.99127197265625,0.0099334716796875
1768558766997657900,10.395657958984375,0.091156005859375,-1.020721435546875,-0.08026123046875
1768558767007687000,10.40568701171875,0.089080810546875,-0.98870849609375,-0.167633056640625
1768558767017717000,10.415717041015625,-0.0053863525390625,-0.9905853271484375,-0.197662353515625
1768558767027745800,10.425745849609376,-0.0853271484375,-0.9999237060546875,-0.2030029296875
1768558767037774800,10.43577490234375,-0.077178955078125,-0.977203369140625,-0.141204833984375
1768558767047804000,10.445803955078125,-0.1226043701171875,-1.00689697265625,-0.1096954345703125
1768558767057833700,10.455833740234375,-0.0825958251953125,-0.9811859130859375,-0.0733184814453125
1768558767067862800,10.46586279296875,0.0027618408203125,-0.996673583984375,-0.0816650390625
1768558767077891800,10.475891845703124,0.098724365234375,-0.9950103759765625,-0.0499725341796875
1768558767087920600,10.485920654296875,0.07647705078125,-1.0141143798828125,-0.023956298828125
1768558767097950700,10.49595068359375,0.0413055419921875,-0.993621826171875,-0.0269775390625
1768558767107979800,10.505979736328126,0.0735626220703125,-0.9587554931640625,-0.0468597412109375
1768558767118008800,10.5160087890625,0.075927734375,-0.99224853515625,-0.04205322265625
1768558767128039000,10.526038818359375,0.030059814453125,-0.880462646484375,0.03271484375
1768558767138067700,10.536067626953125,-0.2091217041015625,-1.0958099365234375,-0.0395355224609375
1768558767148096800,10.5460966796875,-0.5804443359375,-1.1089935302734375,-0.0254669189453125
1768558767158125800,10.556125732421876,-0.4876708984375,-0.927093505859375,0.211151123046875
1768558767168155600,10.56615576171875,-0.432525634765625,-1.001007080078125,0.098541259765625
1768558767178184700,10.576184814453125,-0.21051025390625,-0.982208251953125,0.050262451171875
1768558767188213800,10.5862138671875,-0.1809234619140625,-0.993743896484375,0.006805419921875
1768558767198242600,10.59624267578125,0.04864501953125,-1.005462646484375,-0.042388916015625
1768558767208272600,10.606272705078124,-0.03460693359375,-1.01007080078125,-0.1416778564453125
1768558767218301700,10.6163017578125,-0.1043548583984375,-0.9780731201171875,-0.1195068359375
1768558767228330800,10.626330810546875,-0.039459228515625,-1.003448486328125,-0.16845703125
1768558767238359800,10.63635986328125,0.014678955078125,-0.9922027587890625,-0.1496429443359375
1768558767248389600,10.6463896484375,-0.0319976806640625,-1.0001983642578125,-0.115936279296875
1768558767258418700,10.656418701171875,-0.03521728515625,-0.996490478515625,-0.1006011962890625
1768558767268448000,10.666447998046875,-0.0410308837890625,-0.99920654296875,-0.0848388671875
1768558767278477600,10.6764775390625,-0.11627197265625,-0.9854278564453125,-0.076904296875
1768558767288506600,10.686506591796874,-0.1483306884765625,-1.006744384765625,-0.0904541015625
1768558767298536000,10.696535888671875,-0.0482940673828125,-0.989776611328125,-0.123260498046875
1768558767308564700,10.706564697265625,-0.001373291015625,-0.9942626953125,-0.154083251953125
1768558767318594800,10.7165947265625,-0.1071014404296875,-0.994140625,-0.181549072265625
1768558767328623900,10.726623779296874,-0.1763916015625,-0.9930572509765625,-0.167572021484375
1768558767338653000,10.73665283203125,-0.1710052490234375,-0.972412109375,-0.139404296875
1768558767348681700,10.746681640625,-0.136322021484375,-0.9833984375,-0.16644287109375
1768558767358712000,10.756712158203126,-0.2333221435546875,-0.9835205078125,-0.1671142578125
1768558767368741000,10.7667412109375,-0.23480224609375,-0.991485595703125,-0.178253173828125
1768558767378770200,10.776770263671875,-0.0444488525390625,-0.9951324462890625,-0.17266845703125
1768558767388800000,10.786800048828125,0.040008544921875,-0.9863433837890625,-0.147125244140625
1768558767398829000,10.7968291015625,-0.01263427734375,-1.0066375732421875,-0.1102752685546875
1768558767408858000,10.806858154296876,0.060943603515625,-1.0139312744140625,0.0081787109375
1768558767418887200,10.81688720703125,0.0133209228515625,-1.0052642822265625,0.0345458984375
1768558767428917000,10.8269169921875,-0.0699920654296875,-0.977203369140625,-0.04119873046875
1768558767438946000,10.836946044921875,0.050537109375,-1.0031280517578125,0.004669189453125
1768558767448975000,10.84697509765625,0.020751953125,-1.0205230712890625,-0.0102996826171875
1768558767459004000,10.85700390625,0.086578369140625,-0.9958343505859375,-0.0099334716796875
1768558767469034000,10.867033935546875,-0.005584716796875,-1.0001068115234375,-0.01116943359375
1768558767479063000,10.87706298828125,0.0408782958984375,-1.011138916015625,0.035919189453125
1768558767489092000,10.887092041015626,0.0803375244140625,-1.005523681640625,-0.0099945068359375
1768558767499121000,10.897120849609376,0.13653564453125,-1.0054473876953125,0.0007476806640625
1768558767509151000,10.90715087890625,0.092926025390625,-1.0218048095703125,0.013580322265625
1768558767519180000,10.917179931640625,0.1082763671875,-0.990447998046875,-0.0331878662109375
1768558767529209000,10.927208984375,0.0728607177734375,-0.9937286376953125,-0.0308380126953125
1768558767539239000,10.937239013671874,-0.0657196044921875,-1.0186767578125,-0.0091400146484375
1768558767549268000,10.94726806640625,-0.115081787109375,-0.9978485107421875,-0.0030364990234375
1768558767559297000,10.957297119140625,-0.17132568359375,-0.992828369140625,-0.0139007568359375
1768558767569325800,10.967325927734375,-0.1103668212890625,-0.9959259033203125,-0.0004730224609375
1768558767579356000,10.97735595703125,-0.0647735595703125,-0.996185302734375,-0.006866455078125
1768558767589385000,10.987385009765624,-0.1172332763671875,-0.99896240234375,-0.0290069580078125
1768558767599414000,10.9974140625,-0.093994140625,-1.00079345703125,-0.00653076171875
1768558767609443000,11.007443115234375,-0.029296875,-0.999176025390625,-0.005828857421875
1768558767619473000,11.017472900390626,0.0392303466796875,-1.007293701171875,-0.0072784423828125
1768558767629502000,11.027501953125,0.0707855224609375,-1.0030517578125,-0.006561279296875
1768558767639531000,11.037531005859375,0.0834197998046875,-1.00616455078125,-0.020294189453125
1768558767649560800,11.047560791015625,0.0957489013671875,-1.011627197265625,-0.0063629150390625
1768558767659590000,11.05758984375,0.12921142578125,-1.0062255859375,-0.018798828125
1768558767669619200,11.067619140625,0.0658111572265625,-1.002655029296875,-0.027740478515625
1768558767679648000,11.07764794921875,0.001983642578125,-1.0148773193359375,-0.0152130126953125
1768558767689678000,11.087677978515625,0.02093505859375,-0.9960479736328125,-0.028839111328125
1768558767699707100,11.09770703125,0.02801513671875,-1.003173828125,-0.0359039306640625
1768558767709736200,11.107736083984374,-0.0025634765625,-0.99639892578125,-0.032867431640625
1768558767719766000,11.11776611328125,-0.0400238037109375,-1.0001220703125,-0.04345703125
1768558767729795000,11.127795166015625,-0.0319976806640625,-1.00152587890625,-0.0436248779296875
1768558767739824000,11.13782421875,-0.0597686767578125,-0.990966796875,-0.0507049560546875
1768558767749853200,11.147853271484376,-0.153289794921875,-0.99688720703125,-0.0341644287109375
1768558767759883000,11.157883056640625,-0.22955322265625,-0.9965057373046875,-0.0294952392578125
1768558767769912000,11.167912109375,-0.3115997314453125,-0.98297119140625,-0.0315093994140625
1768558767779941000,11.177941162109375,-0.2794036865234375,-0.9850921630859375,-0.0499420166015625
1768558767789970000,11.187969970703126,-0.16278076171875,-0.9892578125,-0.089569091796875
1768558767800000000,11.198,-0.0522918701171875,-1.000274658203125,-0.1222991943359375
1768558767810029000,11.208029052734375,0.0533905029296875,-0.9979248046875,-0.1412200927734375
1768558767820058000,11.21805810546875,0.08734130859375,-1.0122833251953125,-0.16363525390625
1768558767830088200,11.228088134765626,0.19061279296875,-0.97540283203125,-0.1634674072265625
1768558767840117000,11.238116943359374,0.181121826171875,-1.0029144287109375,-0.1310272216796875
1768558767850146000,11.24814599609375,0.0944976806640625,-1.0169677734375,-0.1276397705078125
1768558767860175000,11.258175048828125,0.0759735107421875,-0.97802734375,-0.094329833984375
1768558767870205000,11.268204833984376,-0.1433563232421875,-1.0127410888671875,-0.09454345703125
1768558767880234000,11.27823388671875,-0.198455810546875,-0.9765625,-0.027313232421875
1768558767890263000,11.288262939453125,-0.306243896484375,-1.013916015625,0.0119781494140625
1768558767900291800,11.298291748046875,-0.267333984375,-0.975921630859375,-0.0082855224609375
1768558767910322000,11.308322021484376,-0.2776031494140625,-0.9839324951171875,-0.050048828125
1768558767920351000,11.31835107421875,-0.2181549072265625,-0.9980316162109375,-0.0367584228515625
1768558767930380000,11.328380126953125,-0.110595703125,-0.9937896728515625,-0.03857421875
1768558767940410000,11.33841015625,-0.024444580078125,-1.00262451171875,-0.0740509033203125
1768558767950439000,11.34843896484375,0.0365753173828125,-0.9896697998046875,-0.0969085693359375
1768558767960468000,11.358468017578126,0.007110595703125,-0.9981536865234375,-0.109954833984375
1768558767970497000,11.3684970703125,-0.0565948486328125,-0.9976043701171875,-0.09930419921875
1768558767980526800,11.37852685546875,0.0062713623046875,-1.0103759765625,-0.075408935546875
1768558767990556000,11.388555908203125,0.0074310302734375,-0.9953765869140625,-0.111083984375
1768558768000585000,11.3985849609375,0.0289154052734375,-0.9990692138671875,-0.1290130615234375
1768558768010614000,11.408614013671874,0.0735931396484375,-0.99957275390625,-0.11407470703125
1768558768020643800,11.418643798828125,0.027984619140625,-0.9994964599609375,-0.124725341796875
1768558768030673200,11.428673095703125,-0.0279998779296875,-0.9913482666015625,-0.102386474609375
1768558768040702200,11.4387021484375,-0.1338348388671875,-0.9912109375,-0.0775604248046875
1768558768050732000,11.44873193359375,-0.2173919677734375,-0.992431640625,-0.059539794921875
1768558768060761000,11.458760986328125,-0.2480316162109375,-0.981842041015625,0.002227783203125
1768558768070790100,11.4687900390625,-0.275390625,-1.007537841796875,0.0162811279296875
1768558768080819200,11.478819091796876,-0.2372894287109375,-0.9800872802734375,0.0108795166015625
1768558768090849000,11.48884912109375,-0.21954345703125,-0.9958038330078125,0.036102294921875
1768558768100878000,11.498878173828125,-0.1839599609375,-0.94775390625,-0.06121826171875
1768558768110907100,11.5089072265625,-0.3477325439453125,-1.0901947021484375,0.31707763671875
1768558768120936000,11.51893603515625,-0.068756103515625,-0.934783935546875,0.4415130615234375
1768558768130966000,11.528966064453124,-0.062744140625,-1.0526580810546875,0.340240478515625
1768558768140995000,11.5389951171875,-0.0115814208984375,-0.9983367919921875,0.4400177001953125
1768558768151024000,11.549024169921875,0.026123046875,-1.045074462890625,0.3528289794921875
1768558768161054200,11.55905419921875,0.1404571533203125,-1.0078582763671875,0.3307647705078125
1768558768171083000,11.5690830078125,0.0206756591796875,-1.0140380859375,0.283050537109375
1768558768181112000,11.579112060546874,0.0016632080078125,-1.0179901123046875,0.2513427734375
1768558768191141000,11.58914111328125,0.1082916259765625,-1.011627197265625,0.24658203125
1768558768201171000,11.5991708984375,0.136505126953125,-1.01495361328125,0.16229248046875
1768558768211200000,11.609199951171876,0.1256103515625,-0.9996185302734375,0.0619964599609375
1768558768221229000,11.61922900390625,0.1034698486328125,-1.0160369873046875,-0.073516845703125
1768558768231257900,11.6292578125,0.12579345703125,-0.9933929443359375,-0.1343994140625
1768558768241288000,11.639287841796875,0.112579345703125,-1.001556396484375,-0.160400390625
1768558768251317000,11.64931689453125,0.0491485595703125,-1.000823974609375,-0.1576385498046875
1768558768261346000,11.659345947265624,-0.01202392578125,-0.988922119140625,-0.106689453125
1768558768271376100,11.669376220703125,-0.0347442626953125,-1.0063934326171875,-0.0799713134765625
1768558768281405000,11.679405029296875,-0.0007171630859375,-0.9934539794921875,-0.043060302734375
1768558768291434000,11.68943408203125,0.0185394287109375,-1.008056640625,-0.0395050048828125
1768558768301463000,11.699463134765624,0.0454864501953125,-1.0009002685546875,-0.0371246337890625
1768558768311492900,11.709492919921875,0.042327880859375,-1.0076751708984375,-0.0307769775390625
1768558768321522000,11.71952197265625,0.0767669677734375,-0.990997314453125,-0.0280303955078125
1768558768331551000,11.729551025390625,0.03839111328125,-1.0141754150390625,-0.0194091796875
1768558768341581000,11.7395810546875,0.03778076171875,-1.0122222900390625,-0.0002899169921875
1768558768351609900,11.74960986328125,0.078277587890625,-0.985260009765625,0.0435028076171875
1768558768361639000,11.759638916015625,0.0359344482421875,-1.01824951171875,0.038604736328125
1768558768371668000,11.76966796875,0.012481689453125,-1.005859375,0.0660247802734375
1768558768381697500,11.779697509765626,0.0353851318359375,-1.014373779296875,0.063262939453125
1768558768391726800,11.789726806640624,0.0327911376953125,-0.98101806640625,0.0619964599609375
1768558768401756000,11.799755859375,-0.0571746826171875,-1.0164031982421875,0.025360107421875
1768558768411785000,11.809784912109375,-0.0441131591796875,-1.0051116943359375,0.03521728515625
1768558768421814800,11.819814697265626,-0.0828704833984375,-0.98291015625,0.0001373291015625
1768558768431843800,11.82984375,-0.106964111328125,-1.0168609619140625,-0.036346435546875
1768558768441873000,11.839872802734375,-0.107940673828125,-0.98687744140625,-0.0566253662109375
1768558768451903000,11.849903076171875,-0.1259918212890625,-0.988372802734375,-0.10638427734375
1768558768461931800,11.859931884765626,-0.1399993896484375,-1.002960205078125,-0.1179351806640625
1768558768471960800,11.8699609375,-0.0904998779296875,-0.9817962646484375,-0.089324951171875
1768558768481990000,11.879989990234375,-0.08056640625,-0.994140625,-0.073699951171875
1768558768492019700,11.890019775390625,-0.0783233642578125,-0.9913177490234375,-0.0408782958984375
1768558768502048800,11.900048828125,-0.0204925537109375,-1.014129638671875,0.0184783935546875
1768558768512077800,11.910077880859374,-0.005950927734375,-0.9991455078125,0.0594329833984375
1768558768522108000,11.92010791015625,-0.0516815185546875,-1.0152587890625,0.0652923583984375
1768558768532136700,11.93013671875,-0.0964813232421875,-0.996185302734375,0.085601806640625
1768558768542165800,11.940165771484375,-0.126068115234375,-0.9988861083984375,0.0876922607421875
1768558768552194800,11.95019482421875,-0.181884765625,-1.0022735595703125,0.08074951171875
1768558768562225000,11.960224853515625,-0.22576904296875,-0.992462158203125,0.064361572265625
1768558768572253700,11.970253662109375,-0.196624755859375,-0.9964447021484375,0.044677734375
1768558768582282800,11.98028271484375,-0.17266845703125,-0.99395751953125,0.005706787109375
1768558768592311800,11.990311767578126,-0.1241455078125,-0.99664306640625,-0.0163726806640625
1768558768602341600,12.000341552734374,-0.0469207763671875,-0.9995269775390625,-0.0368499755859375
1768558768612370700,12.01037060546875,0.035552978515625,-0.9990234375,-0.047760009765625
1768558768622399700,12.020399658203125,0.0869293212890625,-1.0027618408203125,-0.078460693359375
1768558768632429800,12.030429931640626,0.1342620849609375,-1.0011749267578125,-0.0617523193359375
1768558768642458600,12.040458740234374,0.1186370849609375,-1.0039825439453125,-0.059600830078125
1768558768652487700,12.05048779296875,0.1511077880859375,-1.00872802734375,-0.01861572265625
1768558768662516700,12.060516845703125,0.1214447021484375,-1.0019378662109375,0.000335693359375
1768558768672546800,12.070546875,0.0911407470703125,-1.0106964111328125,0.0068206787109375
1768558768682575600,12.08057568359375,0.0344696044921875,-0.99847412109375,0.0185699462890625
1768558768692604700,12.090604736328125,0.0137176513671875,-0.996612548828125,0.0329437255859375
1768558768702634800,12.100634765625,-0.02093505859375,-1.0133209228515625,0.043701171875
1768558768712663800,12.110663818359376,-0.0614166259765625,-0.97344970703125,0.0198211669921875
1768558768722692600,12.120692626953126,-0.109375,-1.01275634765625,0.01898193359375
1768558768732722000,12.130721923828125,-0.0507354736328125,-0.9763031005859375,0.0632781982421875
1768558768742751700,12.140751708984375,-0.162933349609375,-1.014068603515625,0.0128173828125
1768558768752780800,12.15078076171875,-0.0896453857421875,-0.9920654296875,0.034454345703125
1768558768762809900,12.160809814453126,-0.0761566162109375,-1.042327880859375,-0.0311126708984375
1768558768772839700,12.170839599609375,-0.0813446044921875,-1.021087646484375,-0.028228759765625
1768558768782868700,12.18086865234375,0.07989501953125,-0.969573974609375,0.006744384765625
1768558768792897800,12.190897705078125,0.011199951171875,-1.0191192626953125,-0.017303466796875
1768558768802926800,12.2009267578125,0.0705413818359375,-0.9872589111328125,-0.0029754638671875
1768558768812957000,12.21095703125,0.05780029296875,-1.023590087890625,-0.013946533203125
1768558768822986000,12.220986083984375,0.029754638671875,-1.0035858154296875,-0.00506591796875
1768558768833014800,12.231014892578125,0.00390625,-1.002655029296875,-0.0045928955078125
1768558768843044900,12.241044921875,-0.0735321044921875,-0.9947509765625,-0.003326416015625
1768558768853074000,12.251073974609374,-0.05206298828125,-0.993499755859375,0.0047149658203125
1768558768863102700,12.261102783203125,0.0211334228515625,-1.006256103515625,0.0135345458984375
1768558768873131800,12.2711318359375,-0.22955322265625,-1.0156707763671875,0.046051025390625
1768558768883161900,12.281161865234376,-0.1821746826171875,-1.005157470703125,0.003082275390625
1768558768893191000,12.29119091796875,0.082000732421875,-0.997100830078125,0.03289794921875
1768558768903219700,12.3012197265625,-0.1012420654296875,-0.9786834716796875,0.000244140625
1768558768913248800,12.311248779296875,-0.2944793701171875,-1.0089874267578125,-0.0626678466796875
1768558768923278800,12.32127880859375,0.291168212890625,-0.989776611328125,0.1239166259765625
1768558768933308000,12.331307861328124,1.3295440673828125,-1.1986846923828125,0.4421844482421875
1768558768943336700,12.341336669921875,1.3165740966796875,-0.986846923828125,0.1822967529296875
1768558768953366800,12.35136669921875,0.2913970947265625,-0.8204193115234375,0.0914154052734375
1768558768963395800,12.361395751953125,-0.234527587890625,-1.248046875,-0.2760162353515625
1768558768973424600,12.371424560546876,-0.9387969970703125,-0.8175811767578125,-0.3558807373046875
1768558768983453700,12.38145361328125,-0.6303558349609375,-0.8104095458984375,-0.0263214111328125
1768558768993483800,12.39148388671875,-1.0670318603515625,-1.253173828125,-0.1539459228515625
1768558769003512800,12.401512939453125,-0.5593414306640625,-0.845672607421875,-0.22772216796875
1768558769013541600,12.411541748046876,0.127227783203125,-1.1636962890625,-0.12060546875
1768558769023571700,12.42157177734375,0.103973388671875,-0.808197021484375,0.4911346435546875
1768558769033600800,12.431600830078125,0.0347137451171875,-0.9029083251953125,0.1588592529296875
1768558769043629800,12.4416298828125,0.015472412109375,-1.2277069091796875,-0.202972412109375
1768558769053658600,12.45165869140625,-0.0391082763671875,-0.8741607666015625,-0.0805206298828125
1768558769063688700,12.461688720703124,0.053802490234375,-1.072540283203125,-0.0459136962890625
1768558769073717800,12.4717177734375,0.0680694580078125,-0.973480224609375,0.1092529296875
1768558769083746600,12.48174658203125,0.077301025390625,-0.9409637451171875,-0.0017242431640625
1768558769093776600,12.491776611328126,0.034576416015625,-1.065643310546875,-0.0953521728515625
1768558769103805700,12.5018056640625,0.08062744140625,-0.95050048828125,-0.086090087890625
1768558769113834800,12.511834716796875,0.26025390625,-1.0460662841796875,-0.1377105712890625
1768558769123863800,12.52186376953125,0.040863037109375,-0.9707489013671875,-0.0766448974609375
1768558769133893600,12.5318935546875,0.1362457275390625,-1.029632568359375,-0.02288818359375
1768558769143922700,12.541922607421874,-0.0010223388671875,-0.98529052734375,0.0239715576171875
1768558769153952000,12.551951904296875,-0.067108154296875,-1.007354736328125,0.044464111328125
1768558769163981600,12.561981689453125,-0.058441162109375,-1.014495849609375,0.0334625244140625
1768558769174011000,12.572010986328126,-0.0670928955078125,-0.9989013671875,0.082275390625
1768558769184040000,12.5820400390625,-0.0923919677734375,-0.9893035888671875,0.1320343017578125
1768558769194068700,12.59206884765625,-0.1144866943359375,-0.9940948486328125,0.0906219482421875
1768558769204098800,12.602098876953125,-0.12060546875,-1.0128631591796875,0.0426483154296875
1768558769214127900,12.6121279296875,-0.480499267578125,-0.96063232421875,-0.02191162109375
1768558769224157000,12.622156982421876,-0.5981903076171875,-0.983978271484375,-0.1642303466796875
1768558769234187000,12.63218701171875,-0.03369140625,-1.0113372802734375,-0.0271148681640625
1768558769244215800,12.6422158203125,0.0250091552734375,-0.9754180908203125,0.0395050048828125
1768558769254244900,12.652244873046875,-0.2255401611328125,-1.007598876953125,-0.017608642578125
1768558769264274000,12.66227392578125,-0.0928192138671875,-1.00970458984375,0.03228759765625
1768558769274303700,12.6723037109375,0.020904541015625,-0.9914703369140625,0.032196044921875
1768558769284332800,12.682332763671875,0.002655029296875,-1.0011444091796875,0.0148468017578125
1768558769294361900,12.69236181640625,0.0021209716796875,-0.9940643310546875,-0.01397705078125
1768558769304390700,12.702390625,-0.015960693359375,-1.008575439453125,-0.05267333984375
1768558769314420700,12.712420654296874,-0.013946533203125,-0.999603271484375,-0.0598907470703125
1768558769324449800,12.72244970703125,-0.00469970703125,-0.98687744140625,-0.05169677734375
1768558769334478800,12.732478759765625,-0.002685546875,-1.0171356201171875,-0.053924560546875
1768558769344509000,12.742509033203126,0.0001068115234375,-0.98126220703125,-0.039642333984375
1768558769354537700,12.752537841796874,0.025970458984375,-1.0029296875,-0.020050048828125
1768558769364567000,12.762567138671875,0.009735107421875,-1.01715087890625,-0.0284576416015625
1768558769374597000,12.77259716796875,0.056976318359375,-0.9842681884765625,0.0225982666015625
1768558769384626000,12.7826259765625,0.0580291748046875,-1.0078582763671875,0.050384521484375
1768558769394655000,12.792655029296874,0.108001708984375,-1.0136871337890625,0.0215911865234375
1768558769404684000,12.80268408203125,0.2255706787109375,-1.0007171630859375,0.037322998046875
1768558769414714000,12.812714111328125,0.1162567138671875,-1.0003204345703125,0.0324554443359375
1768558769424743000,12.822742919921875,0.0594024658203125,-1.007171630859375,-0.0066070556640625
1768558769434772000,12.83277197265625,0.05804443359375,-0.9811553955078125,-0.0060272216796875
1768558769444801000,12.842801025390624,0.01263427734375,-1.01470947265625,-0.0509033203125
1768558769454831000,12.8528310546875,0.008636474609375,-0.9982452392578125,-0.07086181640625
1768558769464860000,12.86285986328125,0.0264434814453125,-1.0030975341796875,-0.065826416015625
1768558769474889000,12.872888916015626,0.03076171875,-1.0032501220703125,-0.0555267333984375
1768558769484919000,12.8829189453125,0.0178985595703125,-0.993133544921875,-0.063751220703125
1768558769494947800,12.89294775390625,0.0301666259765625,-0.9924468994140625,-0.0619964599609375
1768558769504977000,12.902976806640625,0.0246124267578125,-0.9857940673828125,-0.0677947998046875
