time,seconds_elapsed,z,y,x
1768558756667608000,0.065608154296875,0.0025931198615580797,0.010123474523425102,-0.021914353594183922
1768558756677637000,0.07563720703125,-0.006884271278977394,0.0076334187760949135,-0.01583142764866352
1768558756687666200,0.085666259765625,-0.007866178639233112,0.0025427863001823425,-0.012539493851363659
1768558756697695000,0.095695068359375,-0.007996140979230404,-0.0022916500456631184,-0.0026996464002877474
1768558756707724000,0.10572412109375,-0.0052110073156654835,-0.00395852280780673,-0.0002844255941454321
1768558756717753000,0.115753173828125,0.0006029396899975836,-0.003576092654839158,-0.002537459833547473
1768558756727782000,0.125781982421875,0.0001637844106880948,-0.003272492438554764,0.00043569316039793193
1768558756737811200,0.135811279296875,0.007075752597302198,0.011100588366389275,0.01738431677222252
1768558756747841000,0.145841064453125,0.05795437842607498,-0.0027957865968346596,-0.03451882675290108
1768558756757870000,0.1558701171875,-0.0009203884401358664,0.043054793030023575,-0.035719648003578186
1768558756767899100,0.165899169921875,-0.004926315508782864,0.04608387127518654,-0.03032861091196537
1768558756777928200,0.17592822265625,-0.0070760189555585384,0.08827713131904602,-0.052508749067783356
1768558756787957000,0.18595703125,-0.013460149057209492,0.11119017004966736,-0.06782511621713638
1768558756797986000,0.195986083984375,-0.012842295691370964,0.10966923832893372,-0.059299275279045105
1768558756808015000,0.20601513671875,-0.006299707572907209,0.07441537827253342,-0.06082659959793091
1768558756818044000,0.2160439453125,-0.0023518374655395746,0.04683301970362663,-0.04277489334344864
1768558756828073000,0.226072998046875,-0.0009089368977583945,0.02249865047633648,-0.02792058140039444
1768558756838103000,0.23610302734375,0.008577508851885796,0.0065684206783771515,-0.019702065736055374
1768558756848132000,0.246132080078125,0.010574880056083202,-0.011634285561740398,0.0019707391038537025
1768558756858161000,0.256160888671875,0.015320632606744766,0.01392700057476759,-0.011451326310634613
1768558756868190000,0.26618994140625,0.0866004079580307,-0.03743472322821617,-0.06302237510681152
1768558756878219000,0.276218994140625,-0.0036962011363357306,-0.14328205585479736,0.14230307936668396
1768558756888248000,0.286248046875,-0.048527587205171585,-0.01498107984662056,0.01782240718603134
1768558756898277000,0.296277099609375,0.03221119940280914,-0.0014674017438665032,-0.02215084247291088
1768558756908306200,0.30630615234375,0.0020607539918273687,-0.01594754122197628,0.01775556057691574
1768558756918335000,0.3163349609375,-0.03239575773477554,0.008100536651909351,-0.013290238566696644
1768558756928364000,0.326364013671875,-0.003328951308503747,-0.0021973741240799427,-0.010425476357340813
1768558756938394000,0.33639404296875,-0.013215936720371246,0.0014495585346594453,-0.01083027757704258
1768558756948423200,0.346423095703125,-0.014658304862678051,0.00376064982265234,-0.00905661191791296
1768558756958452000,0.356451904296875,-0.0049460227601230145,0.0008245146600529552,-0.006842193193733692
1768558756968481000,0.36648095703125,-0.0031169636640697718,0.005672266706824303,-0.010861968621611595
1768558756978510000,0.376510009765625,-0.0019419770687818527,0.011144263669848442,-0.014873487874865532
1768558756988539000,0.386538818359375,-0.0022011026740074158,0.01913241483271122,-0.014050571247935295
1768558756998568000,0.39656787109375,-0.00629038643091917,0.01847727783024311,-0.01332992035895586
1768558757008597200,0.40659716796875,-0.013502758927643299,0.01654222421348095,-0.009816145524382591
1768558757018626000,0.4166259765625,-0.02425207570195198,0.015675898641347885,-0.011751198209822178
1768558757028656000,0.42665625,-0.03429405763745308,0.012769324705004692,-0.006638195365667343
1768558757038685200,0.436685302734375,-0.031619977205991745,0.01019937451928854,-0.006687463726848364
1768558757048714200,0.44671435546875,-0.01792067661881447,0.006161755882203579,-0.006856574676930904
1768558757058743000,0.456742919921875,-0.004203266929835081,0.0018975022248923779,-0.008769256994128227
1768558757068772000,0.466772216796875,0.0013496900210157037,0.029202893376350403,0.0258070956915617
1768558757078801200,0.47680126953125,0.0883525013923645,-0.03062395565211773,-0.008843026123940945
1768558757088830000,0.486829833984375,-0.02756025455892086,0.02040513977408409,-0.03682885318994522
1768558757098859000,0.49685888671875,-0.002110022585839033,-0.022658174857497215,0.03725895658135414
1768558757108888000,0.50688818359375,-0.00025832661776803434,0.0014564828015863895,-0.01588149555027485
1768558757118916900,0.516916748046875,-0.013578658923506737,-0.007760184817016125,0.010247045196592808
1768558757128947000,0.526947021484375,-0.007592672016471624,-0.005817142780870199,0.0030479878187179565
1768558757138976000,0.53697607421875,-0.005883455276489258,0.0019006980583071709,-0.011753329075872898
1768558757149005000,0.547005126953125,-0.004792091902345419,-0.0029435919132083654,-0.0013816480059176683
1768558757159034000,0.5570341796875,-0.006148173473775387,0.0029411951545625925,-0.012178102508187294
1768558757169063200,0.567063232421875,-0.011549063958227634,0.00009933590627042577,-0.004043477587401867
1768558757179092200,0.57709228515625,-0.020604077726602554,0.0022445120848715305,-0.004064250271767378
1768558757189121000,0.58712109375,-0.017706824466586113,0.0017949705943465233,-0.006844324059784412
1768558757199150000,0.597150146484375,-0.019269036129117012,-0.0017414409667253494,0.0006815029191784561
1768558757209179100,0.60717919921875,-0.009734386578202248,-0.004318581894040108,-0.0004673847579397261
1768558757219208000,0.6172080078125,-0.007715710438787937,-0.0037268276792019606,-0.0005339637864381075
1768558757229237000,0.627237060546875,-0.005907157436013222,-0.00894129741936922,0.005674663465470076
1768558757239267000,0.63726708984375,-0.005886118393391371,-0.00899642426520586,0.005852030124515295
1768558757249296000,0.6472958984375,-0.004604605492204428,-0.007919708266854286,0.004664793144911528
1768558757259325000,0.657324951171875,-0.005083441734313965,-0.007648332044482231,0.003998470026999712
1768558757269354000,0.66735400390625,-0.004466653801500797,-0.012231365777552128,0.004204865079373121
1768558757279383000,0.677383056640625,-0.004427505191415548,-0.0065385932102799416,-0.00015180018090177327
1768558757289412000,0.687412109375,-0.005535380449146032,-0.0003081277245655656,-0.007702394388616085
1768558757299441200,0.697441162109375,-0.0038035267498344183,0.0017209346406161785,-0.009613212198019028
1768558757309470200,0.70747021484375,-0.007030212786048651,0.0016205335268750787,-0.010978614911437035
1768558757319499000,0.7174990234375,-0.007674431428313255,0.00145195540972054,-0.010934939607977867
1768558757329528000,0.727528076171875,-0.00689199473708868,0.0019622170366346836,-0.007949003018438816
1768558757339558100,0.73755810546875,-0.004208593629300594,-0.001856489572674036,-0.004059722647070885
1768558757349586700,0.747586669921875,-0.0018239989876747131,-0.00424268189817667,-0.0035369442775845528
1768558757359615500,0.757615478515625,-0.005032042972743511,-0.006902114488184452,0.0032653016969561577
1768558757369644500,0.76764453125,-0.001680720946751535,-0.008859271183609962,0.005705290008336306
1768558757379673600,0.777673583984375,-0.0029635655228048563,-0.008400142192840576,0.0009720537927933037
1768558757389702700,0.78770263671875,-0.002743055811151862,-0.008730107918381691,0.0023968450259417295
1768558757399731700,0.797731689453125,-0.0017646105261519551,-0.008865130133926868,0.0009917612187564373
1768558757409760800,0.8077607421875,-0.0006053365068510175,-0.007074953522533178,-0.0015430354978889227
1768558757419789600,0.81778955078125,0.0009062737226486206,-0.005291967187076807,-0.001508414396084845
1768558757429818600,0.827818603515625,0.0002069276088150218,-0.008856608532369137,-0.0013044163351878524
1768558757439847700,0.83784765625,0.0018881811993196607,-0.0027060380671173334,-0.0033750240691006184
1768558757449877800,0.847877685546875,-0.0007534082396887243,-0.0013203952694311738,-0.0041215079836547375
1768558757459906600,0.857906494140625,-0.003931358456611633,-0.0007424892974086106,-0.0037204360123723745
1768558757469935600,0.867935546875,-0.0028788771014660597,0.006124737672507763,-0.006295979022979736
1768558757479964700,0.877964599609375,0.005052815657109022,0.07457569986581802,0.007742874324321747
1768558757489993500,0.887993408203125,0.0008024104172363877,0.07294797897338867,-0.010416688397526741
1768558757500022500,0.8980224609375,-0.00019574233738239855,0.08231617510318756,-0.0019896477460861206
1768558757510051800,0.9080517578125,0.0026876621413975954,0.072941854596138,-0.013655890710651875
1768558757520080600,0.91808056640625,-0.0018943065078929067,0.05529681220650673,-0.014873754233121872
1768558757538885600,0.9368857421875,-0.0051835766062140465,0.0010458233300596476,-0.010273676365613937
1768558757548914700,0.946914794921875,-0.003388606244698167,-0.002802710747346282,-0.007894141599535942
1768558757558943700,0.95694384765625,-0.0017531589837744832,0.00009054747351910919,-0.006450176239013672
1768558757568972500,0.96697265625,0.0035518580116331577,-0.0021435783710330725,-0.005605954211205244
1768558757579001600,0.977001708984375,0.00526773277670145,-0.004622981417924166,-0.0010892328573390841
1768558757589030700,0.98703076171875,0.006424875929951668,-0.004984372295439243,-0.0023435817565768957
1768558757599059500,0.9970595703125,0.007672034204006195,-0.008115717209875584,-0.000630902883131057
1768558757609088800,1.0070888671875,0.009249957278370857,-0.006543120369315147,0.0012037487467750907
1768558757619117800,1.017117919921875,0.01044358592480421,-0.0048916940577328205,-0.0015627428656443954
1768558757629147600,1.027147705078125,0.011124024167656898,-0.004661597311496735,-0.003681021276861429
1768558757639176700,1.0371767578125,0.010088587179780006,-0.0038748993538320065,-0.003955593332648277
1768558757649205800,1.047205810546875,-0.00045087316539138556,-0.0013771206140518188,-0.006137254647910595
1768558757659234800,1.05723486328125,-0.005533782299607992,-0.001645567244850099,-0.005982525181025267
1768558757669263600,1.067263671875,-0.007993478327989578,-0.0033896714448928833,-0.002633866388350725
1768558757679292700,1.077292724609375,-0.006477872841060162,-0.002234125742688775,-0.0029031119775027037
1768558757689321700,1.08732177734375,-0.0043678502552211285,-0.005081044975668192,-0.0008607336785644293
1768558757699350500,1.0973505859375,0.00011611382069531828,-0.004993160720914602,0.0004410194815136492
1768558757709379600,1.107379638671875,0.0046781087294220924,-0.005375590641051531,-0.0004548678989522159
1768558757719408600,1.11740869140625,0.00923397857695818,-0.005951365921646357,-0.00014567491598427296
1768558757729437700,1.127437744140625,0.011508584022521973,-0.004120176658034325,0.002061286708340049
1768558757739467500,1.137467529296875,0.009563677944242954,-0.0024740765802562237,-0.0027499801944941282
1768558757749496600,1.14749658203125,0.010089918039739132,-0.002752110594883561,-0.0025718146935105324
1768558757759525600,1.157525634765625,0.002478603972122073,-0.0018793927738443017,-0.004393949639052153
1768558757769554700,1.1675546875,-0.00013768543431069702,-0.0010673949727788568,-0.006316218990832567
1768558757779583700,1.177583740234375,-0.008129831403493881,-0.0010197244118899107,-0.0057228668592870235
1768558757789612500,1.187612548828125,-0.01344763208180666,0.00047830372932367027,-0.008153799921274185
1768558757799641600,1.1976416015625,-0.013856160454452038,0.0010724549647420645,-0.007911984808743
1768558757809670700,1.207670654296875,-0.015911055728793144,-0.0002085255109705031,-0.008477107621729374
1768558757819699500,1.217699462890625,-0.015957927331328392,-0.0004463458026293665,-0.006446714047342539
1768558757829728500,1.227728515625,-0.007214503362774849,-0.0007938882918097079,-0.0062666842713952065
1768558757839757600,1.237757568359375,-0.0011374361347407103,-0.0028043086640536785,-0.004207528196275234
1768558757849787000,1.247786865234375,0.0025220136158168316,-0.0034027209039777517,-0.003537476761266589
1768558757859816400,1.25781640625,0.0016615461790934205,-0.0035273567773401737,-0.003373426152393222
1768558757869845500,1.267845458984375,0.0018780612153932452,-0.002254898427054286,-0.0037734329234808683
1768558757879874800,1.277874755859375,-0.0007693872321397066,-0.0022711437195539474,-0.00256355875171721
1768558757889903600,1.287903564453125,-0.003132942598313093,-0.00162399560213089,-0.005319930613040924
1768558757899932700,1.2979326171875,-0.015263641253113747,-0.0009989517275243998,-0.0057289921678602695
1768558757909961700,1.307961669921875,-0.016586966812610626,-0.0001483380765421316,-0.008830509148538113
1768558757919990500,1.317990478515625,-0.01757233589887619,0.0011771172285079956,-0.009425992146134377
1768558757930019600,1.32801953125,-0.01823759265244007,-0.000248472933890298,-0.008927981369197369
1768558757940048600,1.338048583984375,-0.008585232309997082,0.0012855078093707561,-0.010602043941617012
1768558757950077400,1.348077392578125,-0.0019718045368790627,0.00011478224041638896,-0.007755391299724579
1768558757960106500,1.3581064453125,-0.0015781891997903585,-0.001984054921194911,-0.005331914871931076
1768558757970135800,1.3681357421875,0.004583566449582577,-0.002071140334010124,-0.004926581867039204
1768558757980165600,1.37816552734375,0.0011430287268012762,-0.005103681702166796,-0.001193096162751317
1768558757990194400,1.3881943359375,-0.0008088020258583128,-0.004698881413787603,-0.0018373148050159216
1768558758000223700,1.3982236328125,0.0014213290996849537,-0.005091697443276644,0.001255414099432528
1768558758010252800,1.408252685546875,0.002457032445818186,-0.0057433731853961945,0.0003110571997240186
1768558758020281600,1.418281494140625,0.000660463934764266,-0.003640541108325124,-0.0016753945965319872
1768558758030310700,1.428310546875,-0.004744687583297491,-0.0023007048293948174,-0.002948119305074215
1768558758040339700,1.438339599609375,-0.00780625781044364,-0.0005363606614992023,-0.0031931300181895494
1768558758050368500,1.448368408203125,-0.005232844967395067,-0.0003275688213761896,-0.0052144695073366165
1768558758060397600,1.4583974609375,-0.006977482233196497,-0.00039308256236836314,-0.007361776195466518
1768558758070426600,1.468426513671875,-0.0065314024686813354,-0.0017014936311170459,-0.005262406077235937
1768558758080455400,1.478455322265625,-0.006983873434364796,-0.0018871158827096224,-0.003946538548916578
1768558758090485500,1.488485595703125,-0.008595884777605534,-0.0016069513512775302,-0.004758802708238363
1768558758100514600,1.4985146484375,-0.007799866143614054,-0.0019853864796459675,-0.0030751521699130535
1768558758110543600,1.508543701171875,-0.006295179948210716,-0.0012921657180413604,-0.0029145635198801756
1768558758120572700,1.51857275390625,-0.0034384073223918676,-0.002304965863004327,-0.0034850125666707754
1768558758130601700,1.528601806640625,-0.00247540813870728,-0.0029489181470125914,-0.0024836640805006027
1768558758140630800,1.538630859375,0.0003020024741999805,-0.0018884475575760007,-0.0034147051628679037
1768558758150659600,1.54865966796875,0.0014056164072826505,-0.004396612755954266,-0.003368099918588996
1768558758160688600,1.558688720703125,-0.00008442220860160887,-0.0028330706991255283,-0.0026045716367661953
1768558758170717700,1.5687177734375,0.0007400924805551767,-0.0038312235847115517,-0.002373941708356142
1768558758180746500,1.57874658203125,0.0024855281226336956,-0.0029491845052689314,-0.004165183752775192
1768558758190775600,1.588775634765625,0.004769455175846815,-0.003709516953676939,-0.001773132593370974
1768558758200804600,1.5988046875,0.006275472696870565,-0.0035510589368641376,-0.0038099181838333607
1768558758210834700,1.608834716796875,0.004839762579649687,-0.0034322820138186216,-0.0038434739690274
1768558758220863500,1.618863525390625,0.0007989483419805765,-0.0011233213590458035,-0.0016972325975075364
1768558758230892500,1.628892578125,-0.0062523032538592815,-0.0030210898257791996,-0.0019568908028304577
1768558758240921900,1.638921875,-0.011149589903652668,-0.000990429543890059,-0.0043747746385633945
1768558758250950700,1.64895068359375,-0.01318051666021347,-0.0002716424351092428,-0.0060048955492675304
1768558758260979700,1.658979736328125,-0.012233763001859188,-0.00031132352887652814,-0.005805957596749067
1768558758271008800,1.6690087890625,-0.017241571098566055,-0.000330231967382133,-0.006883738562464714
1768558758281037600,1.67903759765625,-0.014675881713628769,-0.0016855146968737245,-0.006012352649122477
1768558758291066600,1.689066650390625,-0.013575463555753231,-0.0005589975044131279,-0.006417685654014349
1768558758301095700,1.699095703125,-0.009103749878704548,-0.000892425247002393,-0.005004079546779394
1768558758311124500,1.70912451171875,-0.006629939656704664,-0.0009869674686342478,-0.005583849735558033
1768558758321153500,1.719153564453125,-0.0016413062112405896,-0.0024711471050977707,-0.002484995638951659
1768558758331183600,1.72918359375,0.000046339002437889576,-0.0035305526107549667,-0.004107926040887833
1768558758341212700,1.739212646484375,0.00037950044497847557,-0.002626942005008459,-0.0018373148050159216
1768558758351242000,1.749241943359375,0.0013102752855047584,-0.0038448055274784565,-0.0005014732014387846
1768558758361271000,1.75927099609375,0.0007632619817741215,-0.004533232655376196,-0.002261822810396552
1768558758371300000,1.769300048828125,0.002558232517912984,-0.0019006980583071709,-0.0023752732668071985
1768558758381329200,1.7793291015625,-0.0029137644451111555,-0.002644518855959177,-0.003838680451735854
1768558758391358200,1.789358154296875,-0.004114317707717419,-0.00038722361205145717,-0.004520183429121971
1768558758401387000,1.799386962890625,-0.00586667750030756,-0.0005347627447918057,-0.005252286326140165
1768558758411416000,1.809416015625,-0.006106894463300705,-0.00039015308720991015,-0.005255482159554958
1768558758421445000,1.819445068359375,-0.007063768338412046,-0.0005318332696333528,-0.0031521173659712076
1768558758431474000,1.829473876953125,-0.004221110139042139,-0.002356631215661764,-0.0034645062405616045
1768558758441504000,1.83950390625,-0.0018423747969791293,-0.0013054815353825688,-0.0041284323669970036
1768558758451533000,1.849532958984375,-0.0031289479229599237,-0.0025398568250238895,-0.0033771544694900513
1768558758461562000,1.85956201171875,-0.0037382792215794325,-0.00022210762836039066,-0.004815261345356703
1768558758471591000,1.8695908203125,-0.0022093583829700947,0.0001882854849100113,-0.004472512751817703
1768558758481620000,1.879619873046875,-0.002977946773171425,-0.00017976337403524667,-0.006962302140891552
1768558758491649000,1.88964892578125,-0.005852030124515295,-0.000010918960470007733,-0.005565740168094635
1768558758501678000,1.899677978515625,-0.00777643034234643,-0.00038775624125264585,-0.005064799915999174
1768558758511707100,1.90970703125,-0.009790845215320587,0.000029294771593413316,-0.004150536376982927
1768558758521736200,1.919736083984375,-0.013689979910850525,-0.0014855111949145794,0.00012756542128045112
1768558758531765000,1.929764892578125,-0.01224841084331274,-0.001882854849100113,-0.0044229780323803425
1768558758541794000,1.9397939453125,-0.010517089627683163,0.0005850964807905257,-0.003156644757837057
1768558758551824100,1.94982421875,-0.005913549102842808,-0.0011201255256310105,-0.002802977105602622
1768558758561853200,1.959853271484375,-0.00264744833111763,0.00008362325752386823,-0.0034029872622340918
1768558758571882000,1.969882080078125,-0.0013725932221859694,-0.0029798108153045177,-0.0014689996605738997
1768558758581911000,1.9799111328125,-0.005119128152728081,-0.0026522420812398195,-0.0007478156476281583
1768558758591940000,1.989940185546875,-0.008481102995574474,-0.0006532734259963036,0.0030064424499869347
1768558758601969000,1.999968994140625,-0.011301389895379543,-0.0013305152533575892,-0.0010239854454994202
1768558758611998200,2.009998291015625,-0.014898788183927536,0.001246892032213509,-0.0029497172217816114
1768558758622027300,2.02002734375,-0.014146445319056511,0.025229455903172493,-0.002120675053447485
1768558758632056000,2.03005615234375,-0.0095096156001091,0.04145796224474907,-0.006614226847887039
1768558758642085000,2.040085205078125,-0.004894357640296221,0.008842227049171925,0.08158860355615616
1768558758652114200,2.0501142578125,-0.012762933038175106,-0.005711681675165892,0.05869127810001373
1768558758662144000,2.06014404296875,-0.00845500361174345,0.012384763918817043,-0.002710299100726843
1768558758672173000,2.070173095703125,-0.005904760677367449,-0.005590507760643959,-0.0035686357878148556
1768558758682202000,2.0802021484375,-0.005770271178334951,-0.0116750318557024,0.006666957400739193
1768558758692231200,2.090231201171875,-0.002037584548816085,-0.01252058520913124,0.0012697952333837748
1768558758702260000,2.100260009765625,0.00019414443522691727,-0.019706860184669495,0.003768639173358679
1768558758712289000,2.1102890625,0.0023816649336367846,-0.019876502454280853,0.0018490327056497335
1768558758722318000,2.120318115234375,0.0062214103527367115,-0.010089651681482792,0.000025832661776803434
1768558758732347100,2.13034716796875,0.01124972477555275,-0.00686056911945343,-0.0013901700731366873
1768558758742376200,2.140376220703125,0.016620522364974022,-0.005967345088720322,-0.004883704707026482
1768558758752405200,2.1504052734375,0.008613727986812592,-0.006102367304265499,-0.0028511802665889263
1768558758762435000,2.16043505859375,0.005644303746521473,-0.001187503570690751,-0.004540689755231142
1768558758772464000,2.170464111328125,-0.0005970807396806777,-0.0006942860782146454,-0.006873618811368942
1768558758782493200,2.1804931640625,-0.008086688816547394,0.0067881313152611256,-0.0065377941355109215
1768558758792522000,2.19052197265625,-0.009121859446167946,-0.0016652746126055717,-0.008992429822683334
1768558758802551000,2.200551025390625,-0.010690460912883282,-0.006056294776499271,-0.009014800190925598
1768558758812580000,2.210580078125,-0.00481419637799263,0.0010815097484737635,-0.0067993164993822575
1768558758822609000,2.22060888671875,-0.002439721953123808,-0.0024517059791833162,-0.00890800729393959
1768558758832638000,2.230637939453125,0.00022370553051587194,-0.003552124137058854,-0.0066637615673244
1768558758842667000,2.2406669921875,0.0023070964962244034,-0.0017249294323846698,-0.00803449098020792
1768558758852696000,2.250696044921875,-0.0003270361921750009,-0.00774686923250556,-0.010700581595301628
1768558758862725000,2.26072509765625,-0.0009949569357559085,-0.001933987601660192,-0.006087187211960554
1768558758872755000,2.2707548828125,-0.0015544871566817164,0.002332396572455764,-0.007468036375939846
1768558758882784300,2.2807841796875,-0.0026610305067151785,-0.0012522183824330568,-0.003028813051059842
1768558758892813000,2.29081298828125,-0.0036099147982895374,-0.00219551008194685,-0.0021528995130211115
1768558758902842000,2.300842041015625,-0.004511927254498005,-0.0013558153295889497,-0.003347060875967145
1768558758912871200,2.31087109375,-0.00452897185459733,-0.0020365193486213684,-0.005027515348047018
1768558758922900000,2.32089990234375,-0.005961486138403416,-0.0010495517635717988,-0.0076097166165709496
1768558758932929000,2.330928955078125,-0.004449076950550079,-0.00013209278404247016,-0.005589708685874939
1768558758942958000,2.3409580078125,-0.0031345405150204897,-0.001835716888308525,-0.008238222450017929
1768558758952987000,2.35098681640625,-0.003287672298029065,-0.0005664543714374304,-0.007068828213959932
1768558758963016000,2.361015869140625,-0.004728176165372133,-0.0011611381778493524,-0.004715392831712961
1768558758973046000,2.3710458984375,-0.006209426559507847,-0.0019385149935260415,-0.0015012238873168826
1768558758983075000,2.381074951171875,-0.004984905011951923,-0.0006378270918503404,-0.00355798308737576
1768558758993104000,2.391103759765625,0.00028309403569437563,0.004227235447615385,-0.0064981128089129925
1768558759003133200,2.40113330078125,-0.002989398315548897,-0.0021726067643612623,-0.00686003640294075
1768558759013162200,2.411162353515625,-0.006443784572184086,-0.0012405004817992449,-0.0025132251903414726
1768558759023191000,2.42119091796875,-0.0004892227007076144,-0.0027454528026282787,-0.005753759294748306
1768558759033220000,2.43122021484375,-0.0065282066352665424,-0.0038069887086749077,-0.001704689348116517
1768558759043249200,2.441249267578125,-0.006144179031252861,-0.0028810077346861362,0.0018261295044794679
1768558759053278000,2.45127783203125,0.0006354302167892456,-0.002971555106341839,-0.0046693203039467335
1768558759063307000,2.46130712890625,-0.003090598387643695,-0.0033957967534661293,-0.00038642468280158937
1768558759073337000,2.471337158203125,-0.0013680658303201199,-0.0035111114848405123,-0.003229881636798382
1768558759083366100,2.4813662109375,0.00008202536264434457,-0.0029792783316224813,-0.005110339727252722
1768558759093395000,2.49139501953125,-0.004507666453719139,-0.004064516630023718,-0.006119944155216217
1768558759103424000,2.501424072265625,-0.005023787263780832,-0.001178448786959052,-0.006974286399781704
1768558759113453000,2.511453125,-0.0024557008873671293,-0.001986984396353364,-0.007408115081489086
1768558759123482000,2.521482177734375,-0.0057502975687384605,-0.0033814155030995607,-0.0029494508635252714
1768558759133511200,2.53151123046875,-0.0085426215082407,-0.004020840395241976,0.0015760586829856038
1768558759143540200,2.541540283203125,-0.009593771770596504,-0.00628985371440649,0.0030543794855475426
1768558759153569000,2.551569091796875,-0.011170629411935806,-0.007178816944360733,0.0051801144145429134
1768558759163598000,2.56159814453125,-0.011260110884904861,-0.007818241603672504,0.009320264682173729
1768558759173628200,2.571628173828125,-0.01122415903955698,-0.012765063904225826,0.011203652247786522
1768558759183657200,2.5816572265625,-0.006963367108255625,-0.011345066130161285,0.014100639149546623
1768558759193686000,2.59168603515625,-0.004576908424496651,-0.015673767775297165,0.013902232982218266
1768558759203715000,2.601715087890625,-0.002367816399782896,-0.017239972949028015,0.013877732679247856
1768558759213744000,2.611744140625,0.004806739278137684,-0.02195643074810505,0.01236292626708746
1768558759223773000,2.62177294921875,0.010500311851501465,-0.015577628277242184,0.008930644020438194
1768558759233802000,2.631802001953125,0.006247243378311396,-0.014906778000295162,0.007366303354501724
1768558759243831000,2.6418310546875,0.0016042882343754172,-0.014029532670974731,0.006013950332999229
1768558759253860000,2.651860107421875,0.003841609926894307,-0.012325375340878963,0.0020098877139389515
1768558759263889200,2.66188916015625,0.003808320267125964,-0.012389025650918484,-0.0028389296494424343
1768558759273919200,2.671919189453125,-0.010053965263068676,-0.01028672605752945,-0.0010759170399978757
1768558759283948000,2.681947998046875,-0.0182903241366148,-0.017076987773180008,0.003282079705968499
1768558759293977000,2.69197705078125,-0.02394847571849823,-0.018627479672431946,0.005578789860010147
1768558759304006100,2.702006103515625,-0.025734657421708107,-0.017496967688202858,0.004703408572822809
1768558759314035200,2.71203515625,-0.02497059665620327,-0.019103121012449265,0.004553206264972687
1768558759324064000,2.72206396484375,-0.024235565215349197,-0.018187260255217552,0.0028908613603562117
1768558759334093000,2.732093017578125,-0.022233933210372925,-0.021348165348172188,0.006451507564634085
1768558759344122000,2.7421220703125,-0.05131911486387253,0.0029856697656214237,-0.008481635712087154
1768558759354150700,2.752150634765625,0.003584614722058177,-0.03524986654520035,0.007022489327937365
1768558759364180000,2.762179931640625,-0.008682171814143658,-0.014068680815398693,-0.006365487817674875
1768558759374209800,2.772209716796875,-0.003871171036735177,-0.0005768407136201859,-0.014153636060655117
1768558759384238600,2.782238525390625,-0.004833370912820101,-0.0005163869354873896,-0.006826214492321014
1768558759394268000,2.792267822265625,-0.004702343605458736,-0.03349857032299042,0.020351344719529152
1768558759404297000,2.802296875,-0.004552141297608614,-0.054539941251277924,0.033010147511959076
1768558759414325800,2.81232568359375,-0.0111607750877738,-0.03206951916217804,0.009102151729166508
1768558759424354800,2.822354736328125,0.004196076653897762,-0.00945182517170906,-0.0028583707753568888
1768558759434384000,2.8323837890625,0.0026256104465574026,0.0010490191634744406,-0.008416121825575829
1768558759444412700,2.84241259765625,-0.015360847115516663,-0.0033193640410900116,0.009908290579915047
1768558759454441700,2.852441650390625,-0.021381987258791924,-0.014270815066993237,0.018447717651724815
1768558759464470800,2.862470703125,-0.0067689563147723675,-0.02148345485329628,0.028729116544127464
1768558759474500600,2.87250048828125,-0.011053450405597687,0.008199074305593967,0.0250848475843668
1768558759484529700,2.88252978515625,-0.015417572110891342,0.008166316896677017,0.026129072532057762
1768558759494558700,2.892558837890625,-0.004600876942276955,-0.025898974388837814,-0.00495081627741456
1768558759504587800,2.902587890625,0.0038157771341502666,-0.018642393872141838,0.014269216917455196
1768558759514616800,2.912616943359375,-0.01612970046699047,-0.10127761960029602,0.08497507870197296
1768558759524646000,2.92264599609375,0.006826214492321014,-0.05861324444413185,0.0890241488814354
1768558759534675000,2.932675048828125,0.030059631913900375,-0.020419254899024963,-0.005573729984462261
1768558759544703700,2.942703857421875,-0.025109879672527313,-0.004185956437140703,-0.022898657247424126
1768558759554732800,2.95273291015625,-0.03284263610839844,-0.02473464049398899,0.018501246348023415
1768558759564763000,2.962762939453125,-0.023446204140782356,-0.1232718676328659,0.051176633685827255
1768558759574791700,2.972791748046875,-0.050148654729127884,0.003404052462428808,0.08875144273042679
1768558759584820700,2.98282080078125,-0.031077491119503975,-0.12214668095111847,-0.008468319661915302
1768558759594849800,2.992849853515625,-0.027881165966391563,0.002517752582207322,-0.03267752006649971
1768558759604878600,3.002878662109375,-0.008525577373802662,-0.06345487385988235,-0.01882881484925747
1768558759614907600,3.01290771484375,-0.015282816253602505,-0.07826098054647446,-0.05005704239010811
1768558759624936700,3.022936767578125,-0.0037494644057005644,-0.04278847575187683,-0.09232007712125778
1768558759634965800,3.0329658203125,-0.00788402184844017,-0.029694778844714165,-0.09351050853729248
1768558759644994800,3.042994873046875,-0.0065132929012179375,-0.01852228492498398,-0.03188922256231308
1768558759655024600,3.053024658203125,-0.004555070772767067,-0.027486220002174377,0.01870551146566868
1768558759665054000,3.063053955078125,-0.007902397774159908,-0.03922596573829651,0.0372011661529541
1768558759675082800,3.073082763671875,-0.013247895054519176,-0.050337739288806915,0.03225194662809372
1768558759685111800,3.08311181640625,-0.030070284381508827,-0.1121278703212738,0.01119006983935833
1768558759695140900,3.093140869140625,-0.04472379386425018,-0.12396535277366638,-0.0017153420485556126
1768558759705169700,3.103169677734375,-0.03020024672150612,-0.1250993311405182,0.0008495483780279756
1768558759715198700,3.11319873046875,-0.006177468225359917,-0.05023307725787163,0.0029345371294766665
1768558759725227800,3.123227783203125,0.03326687589287758,-0.010921090841293335,0.02762283943593502
1768558759735256600,3.133256591796875,0.003230947069823742,-0.013350159861147404,0.04204332455992699
1768558759745286700,3.14328662109375,-0.020954815670847893,-0.004701278172433376,0.02093510888516903
1768558759755315700,3.153315673828125,0.0029917950741946697,-0.007963118143379688,0.004286357667297125
1768558759765344800,3.1633447265625,0.0068118334747850895,-0.010311493650078773,0.0038812910206615925
1768558759775373800,3.173373779296875,-0.014841530472040176,-0.017010409384965897,0.014972025528550148
1768558759785403000,3.18340283203125,-0.007562845014035702,-0.015006380155682564,0.033360887318849564
1768558759795432000,3.193431884765625,0.0029198897536844015,-0.010695254430174828,0.04240497946739197
1768558759805460700,3.203460693359375,0.000886566296685487,-0.01059085875749588,0.03130625560879707
1768558759815489800,3.21348974609375,-0.00040000680019147694,-0.004935636185109615,0.014417555183172226
1768558759825518800,3.223518798828125,0.0044139232486486435,-0.003311374457553029,0.00336170825175941
1768558759835549000,3.233548828125,0.0030000510159879923,-0.0022980417124927044,-0.0027180220931768417
1768558759845577700,3.24357763671875,0.0022980417124927044,0.00001944107498275116,-0.006677876226603985
1768558759855606800,3.253606689453125,0.00344479875639081,0.00008175904804375023,-0.0241993460804224
1768558759865635800,3.2636357421875,-0.00022690132027491927,0.0013558153295889497,-0.04066194221377373
1768558759875664600,3.27366455078125,-0.012081163935363293,0.0035175031516700983,-0.0568438395857811
1768558759885693700,3.283693603515625,-0.017174726352095604,0.005140433553606272,-0.07084434479475021
1768558759895722800,3.29372265625,-0.01792733557522297,0.004552141297608614,-0.07640422880649567
1768558759905751800,3.303751708984375,-0.01489426102489233,0.004434429574757814,-0.07658158987760544
1768558759915780900,3.31378076171875,-0.012163189239799976,0.003367300843819976,-0.07126911729574203
1768558759925810700,3.323810791015625,-0.013316870667040348,0.0030660973861813545,-0.06559978425502777
1768558759935839700,3.33383984375,-0.012977317906916142,0.0029827402904629707,-0.05626460537314415
1768558759945868800,3.343868896484375,-0.006206230726093054,0.0005797701887786388,-0.04321112111210823
1768558759955897900,3.35389794921875,-0.006370281334966421,0.0009653958841226995,-0.03117922507226467
1768558759965927000,3.363927001953125,-0.001586178783327341,-0.0014343785587698221,-0.021919945254921913
1768558759975955700,3.373955810546875,-0.0022948458790779114,-0.0024860608391463757,-0.014537663199007511
1768558759985984800,3.38398486328125,-0.003689809702336788,-0.002216815249994397,-0.006705573294311762
1768558759996013800,3.394013916015625,-0.0036770266015082598,-0.001419198582880199,0.00044368262751959264
1768558760006043600,3.404043701171875,-0.0018013621447607875,-0.002438656520098448,0.0024501082953065634
1768558760016072700,3.41407275390625,-0.004834702704101801,-0.0036424053832888603,0.005242965184152126
1768558760026101800,3.424101806640625,-0.0062573631294071674,-0.0023587618488818407,0.006518353242427111
1768558760036130600,3.434130615234375,-0.00544323492795229,-0.0035981968976557255,0.015051653608679771
1768558760046160000,3.444159912109375,-0.002724946476519108,-0.0041761030443012714,0.024773256853222847
1768558760056189000,3.45418896484375,-0.00398568669334054,-0.005417668726295233,0.03303331881761551
1768558760066217700,3.4642177734375,-0.001568069215863943,-0.005349225364625454,0.03900652006268501
1768558760076246800,3.474246826171875,-0.000008255799002654385,-0.004565456882119179,0.038845133036375046
1768558760086275800,3.48427587890625,-0.0014804512029513717,-0.004283428192138672,0.033294305205345154
1768558760096306000,3.494305908203125,0.0020530307665467262,-0.004173972178250551,0.03305062651634216
1768558760106334700,3.504334716796875,0.0009384979493916035,-0.006099171470850706,0.0348820835351944
1768558760116363800,3.51436376953125,-0.014915033243596554,-0.05644915997982025,0.0410880483686924
1768558760126392800,3.524392822265625,-0.015304121188819408,-0.08077101409435272,0.027477163821458817
1768558760136421600,3.534421630859375,-0.03278191387653351,-0.1466512233018875,0.03387700766324997
1768558760146450700,3.54445068359375,-0.02701989933848381,-0.20009474456310272,0.04428011178970337
1768558760156479700,3.554479736328125,-0.040893636643886566,-0.248769611120224,0.07298339903354645
1768558760166508800,3.5645087890625,-0.03408180549740791,-0.31343328952789307,0.08670000731945038
1768558760176538600,3.57453857421875,-0.05067968741059303,-0.36234012246131897,-0.0034791536163538694
1768558760186567700,3.584567626953125,0.8861487507820129,1.965523600578308,0.12159141153097153
1768558760196596700,3.5945966796875,0.4351581335067749,-1.4717658758163452,0.41184428334236145
1768558760206625800,3.604625732421875,-1.1139752864837646,-1.3379836082458496,-0.3039167523384094
1768558760216654800,3.61465478515625,-0.5785965323448181,-1.3063279390335083,0.12842482328414917
1768558760226684000,3.624683837890625,0.4547549784183502,-0.5592315793037415,0.1701965034008026
1768558760236712700,3.634712646484375,0.480547696352005,0.02062804624438286,-0.3538299798965454
1768558760246741800,3.64474169921875,-0.10022486746311188,0.8412747383117676,-0.030610106885433197
1768558760256771800,3.654771728515625,0.07104568183422089,0.38202938437461853,0.2814873456954956
1768558760266801000,3.66480078125,-0.09532785415649414,0.3907243311405182,0.033902838826179504
1768558760276829700,3.67482958984375,0.04274293780326843,0.23148702085018158,0.03170226886868477
1768558760286858800,3.684858642578125,0.03383279964327812,0.12647804617881775,-0.027176760137081146
1768558760296887800,3.6948876953125,0.04261031001806259,-0.02304539829492569,-0.02743801660835743
1768558760306916600,3.70491650390625,0.045452702790498734,-0.051187288016080856,-0.0013667342718690634
1768558760316945700,3.714945556640625,0.050389938056468964,-0.021024592220783234,0.025845712050795555
1768558760326975000,3.72497509765625,0.05528536066412926,-0.03958096355199814,0.02809448540210724
1768558760337004500,3.735004638671875,0.016635170206427574,-0.15404203534126282,0.004086620640009642
1768558760347034000,3.7450341796875,0.00126739835832268,-0.17664507031440735,-0.026857979595661163
1768558760357063200,3.755063232421875,-0.013489177450537682,-0.19012705981731415,-0.006052566226571798
1768558760367092200,3.76509228515625,-0.013165603391826153,-0.1326288878917694,0.0001978728687390685
1768558760377121300,3.775121337890625,-0.01546364463865757,-0.09465193748474121,0.01065237820148468
1768558760387150000,3.785150146484375,-0.01606285572052002,-0.048764877021312714,0.012735769152641296
1768558760397179100,3.79517919921875,-0.009767409414052963,-0.0019683423452079296,0.016598151996731758
1768558760407209200,3.805209228515625,-0.011117898859083652,-0.01793399266898632,0.013799435459077358
1768558760417238300,3.81523828125,-0.02219478413462639,-0.05862735956907272,0.00034700988908298314
1768558760427267000,3.82526708984375,-0.013038836419582367,-0.10208562016487122,-0.012985573150217533
1768558760437296000,3.835296142578125,0.01067874301224947,-0.13923698663711548,-0.027838023379445076
1768558760447325200,3.8453251953125,-0.004553472623229027,-0.3182719945907593,0.0277437474578619
1768558760457354000,3.85535400390625,-0.027148529887199402,-0.30098485946655273,-0.012379171326756477
1768558760467383000,3.865383056640625,-0.02207360975444317,-0.34108754992485046,-0.02895228937268257
1768558760477412000,3.875412109375,0.005594768561422825,-0.27190127968788147,-0.021630726754665375
1768558760487442200,3.885442138671875,-0.004175303969532251,-0.22075581550598145,-0.001609614584594965
1768558760497471000,3.895470947265625,0.01816701889038086,-0.12962403893470764,-0.006322610657662153
1768558760507500300,3.905500244140625,0.027716848999261856,-0.037348970770835876,-0.010600446723401546
1768558760517529300,3.915529296875,0.005402222275733948,0.009047823026776314,-0.02256176806986332
1768558760527558100,3.92555810546875,-0.02642468363046646,0.007637945935130119,-0.027122430503368378
1768558760537587200,3.935587158203125,-0.027454793453216553,0.03496597334742546,-0.0330202691257
1768558760547616300,3.9456162109375,-0.0068054418079555035,0.01984960399568081,-0.10601511597633362
1768558760557646000,3.95564599609375,-0.008167115971446037,-0.0023270701058208942,-0.1572255790233612
1768558760567675100,3.965675048828125,-0.04328089579939842,0.006585997529327869,-0.17021167278289795
1768558760577704200,3.9757041015625,-0.06752684712409973,0.008590824902057648,-0.17090995609760284
1768558760587733000,3.98573291015625,-0.04705272987484932,0.014624216593801975,-0.16682574152946472
1768558760597762000,3.995761962890625,-0.0030567762441933155,0.0038187066093087196,-0.14372308552265167
1768558760607791000,4.005791015625,0.012027900665998459,0.004249606281518936,-0.10581191629171371
1768558760617820200,4.015820068359375,-0.002225870033726096,-0.0010394317796453834,-0.0652700811624527
1768558760627849200,4.02584912109375,-0.031217040494084358,0.002261290093883872,-0.02702442742884159
1768558760637879000,4.035879150390625,-0.029079854488372803,0.00021917815320193768,-0.00634897593408823
1768558760647908000,4.045908203125,-0.009077117778360844,-0.00461632339283824,0.0012354403734207153
1768558760657937200,4.055937255859375,0.009465939365327358,-0.005599562544375658,0.005096491426229477
1768558760667966200,4.06596630859375,0.006195045076310635,-0.0037771612405776978,0.013647901825606823
1768558760677995300,4.075995361328125,-0.00872211903333664,-0.0027286747936159372,0.020859476178884506
1768558760688024000,4.086024169921875,-0.0038959383964538574,-0.0037585191894322634,0.025354092940688133
1768558760698053000,4.09605322265625,0.007684551179409027,-0.005279717035591602,0.027886757627129555
1768558760708083200,4.106083251953125,0.007700530346482992,-0.005109540652483702,0.03188203275203705
1768558760718112300,4.1161123046875,0.000180029688635841,-0.003263703780248761,0.036728985607624054
1768558760728141000,4.12614111328125,0.0010365023044869304,-0.0041161817498505116,0.03597291558980942
1768558760738170000,4.136170166015625,0.0070552462711930275,-0.0036908749025315046,0.036312468349933624
1768558760748199200,4.14619921875,0.00697907991707325,-0.004163053352385759,0.033476199954748154
1768558760758228000,4.15622802734375,0.003412308171391487,-0.0023931164760142565,0.034507375210523605
1768558760768257000,4.166257080078125,0.0008000136003829539,-0.0030570426024496555,0.03178216516971588
1768558760778287000,4.176287109375,0.0035569178871810436,-0.0031004520133137703,0.026430808007717133
1768558760788316200,4.186316162109375,0.004306064918637276,-0.004720453172922134,0.02184857428073883
1768558760798345200,4.19634521484375,0.0000428768944402691,-0.0036882117856293917,0.019686885178089142
1768558760808374300,4.206374267578125,-0.0009478190331719816,-0.0018138790037482977,0.013851366937160492
1768558760818403300,4.2164033203125,-0.0013544837711378932,-0.0013856426812708378,0.008079498074948788
1768558760828432100,4.22643212890625,0.00031638352083973587,-0.0019180085510015488,0.003004844533279538
1768558760838461200,4.236461181640625,-0.003394731320440769,-0.0014692660188302398,-0.0013265205780044198
1768558760848491300,4.2464912109375,-0.0049470881931483746,-0.0009768474847078323,-0.007217166479676962
1768558760858520000,4.25652001953125,-0.005338040180504322,-0.0005419532535597682,-0.011086206883192062
1768558760868549000,4.266549072265625,-0.005987851414829493,-0.0002820287481881678,-0.01600106991827488
1768558760878578200,4.276578125,-0.007991880178451538,-0.0003424825263209641,-0.018702315166592598
1768558760888607200,4.286607177734375,-0.008767925202846527,0.00017789915727917105,-0.022072279825806618
1768558760898636000,4.296635986328125,-0.00899589154869318,0.0006607302348129451,-0.02527073584496975
1768558760908666000,4.306666015625,-0.007938883267343044,0.00006631271389778703,-0.02683401107788086
1768558760918695200,4.316695068359375,-0.007937018759548664,0.0011888351291418076,-0.027186613529920578
1768558760928724000,4.326723876953125,-0.00893863383680582,-0.0014674017438665032,-0.02756345085799694
1768558760938753000,4.3367529296875,-0.007422229740768671,-0.00026738137239590287,-0.02713734470307827
1768558760948782000,4.346781982421875,-0.006901049055159092,-0.0001483380765421316,-0.026677682995796204
1768558760958811100,4.35681103515625,-0.008974852971732616,0.0009108011145144701,-0.025912290439009666
1768558760968840200,4.366840087890625,-0.0068299430422484875,0.0009592706337571144,-0.021434718742966652
1768558760978870300,4.376870361328125,-0.007165767718106508,-0.000919323181733489,-0.019596604630351067
1768558760988899300,4.3868994140625,-0.006631270982325077,-0.001764344167895615,-0.014812768436968327
1768558760998928100,4.39692822265625,-0.004689027555286884,-0.000322775129461661,-0.011771705001592636
1768558761008957200,4.406957275390625,-0.005508748814463615,-0.001064731739461422,-0.010653975419700146
1768558761018986200,4.416986328125,-0.004316451493650675,-0.0020333235152065754,-0.007711182814091444
1768558761029015000,4.42701513671875,-0.002971288748085499,-0.0030178942251950502,0.002912699244916439
1768558761039044000,4.437044189453125,-0.0005046690348535776,-0.00276196445338428,0.019236013293266296
1768558761049074200,4.44707421875,0.0034852789249271154,-0.004782238509505987,0.037406761199235916
1768558761059103200,4.457103271484375,0.005511145573109388,-0.006582268979400396,0.05849526822566986
1768558761069132000,4.467132080078125,0.0019688750617206097,-0.005308212712407112,0.07692620903253555
1768558761079161000,4.4771611328125,0.012167982757091522,-0.008479238487780094,0.08475696295499802
1768558761089190100,4.487190185546875,0.022966569289565086,-0.009460080415010452,0.10140492022037506
1768558761099219200,4.49721923828125,0.007250722497701645,-0.0037207023706287146,0.11890961229801178
1768558761109249000,4.5072490234375,0.005051483865827322,-0.022288527339696884,0.1211509257555008
1768558761119278000,4.517278076171875,0.011205783113837242,-0.04386812075972557,0.10577703267335892
1768558761129307100,4.52730712890625,-0.00025220136740244925,-0.018070880323648453,0.05285176262259483
1768558761139336200,4.537336181640625,-0.02310132421553135,-0.031151527538895607,-0.04078897461295128
1768558761149365200,4.547365234375,-0.0506432019174099,-0.08362911641597748,-0.10245020687580109
1768558761159394000,4.55739404296875,-0.05145600065588951,-0.2713817059993744,-0.12262684851884842
1768558761169423000,4.567423095703125,-0.04387184977531433,-0.3095621168613434,-0.1509018987417221
1768558761179453200,4.577453125,-0.041604965925216675,-0.27957412600517273,-0.1326749622821808
1768558761189482200,4.587482177734375,-0.03352094069123268,-0.21703724563121796,-0.1253422051668167
1768558761199511000,4.597510986328125,-0.030221285298466682,-0.1834087073802948,-0.1435992419719696
1768558761209540000,4.6075400390625,-0.04519091546535492,-0.1866428554058075,-0.1484011858701706
1768558761219569200,4.617569091796875,-0.06133553013205528,-0.16993950307369232,-0.12249182909727097
1768558761229598000,4.627597900390625,-0.04045341536402702,-0.13821379840373993,-0.05518842115998268
1768558761239628000,4.6376279296875,-0.015398397110402584,-0.054849401116371155,0.022843530401587486
1768558761249657000,4.647656982421875,-0.00227806787006557,0.0445440337061882,0.10483986139297485
1768558761259686100,4.65768603515625,0.015752332285046577,0.1058310940861702,0.1940309852361679
1768558761269715000,4.66771484375,0.03738172724843025,0.15596003830432892,0.25313904881477356
1768558761279744300,4.677744140625,0.06514012068510056,0.23470304906368256,0.28486210107803345
1768558761289773300,4.687773193359375,0.10387872904539108,0.26771241426467896,0.2896113097667694
1768558761299803100,4.69780322265625,0.013772803358733654,0.1593494415283203,-0.02154204435646534
1768558761309832200,4.707832275390625,-0.05739591643214226,0.14203304052352905,-0.010144513100385666
1768558761319861200,4.717861328125,-0.01245374046266079,0.04868045449256897,0.044309407472610474
1768558761329890300,4.727890380859375,-0.007589742541313171,0.07286115735769272,0.02191062457859516
1768558761339919000,4.737919189453125,-0.00013422331539914012,0.04905755817890167,0.03376781567931175
1768558761349948000,4.747947998046875,-0.00866006687283516,0.006345247384160757,0.009576461277902126
1768558761359977700,4.757977783203125,-0.020904483273625374,-0.004259726032614708,0.004456799943000078
1768558761370006800,4.7680068359375,-0.0137815922498703,-0.010570352897047997,0.00851545762270689
1768558761380035800,4.778035888671875,-0.022732209414243698,-0.03539500758051872,0.016351277008652687
1768558761390064600,4.788064697265625,-0.016444221138954163,-0.027933629229664803,0.008923187851905823
1768558761400093700,4.79809375,-0.023395869880914688,-0.011660117655992508,0.022359367460012436
1768558761410122800,4.808122802734375,-0.00977353472262621,-0.0268382728099823,0.007573497481644154
1768558761420152800,4.81815283203125,-0.019266905263066292,-0.0436319001019001,0.01948954537510872
1768558761430181600,4.828181640625,-0.02659326046705246,-0.039807599037885666,0.005003813188523054
1768558761440211000,4.8382109375,-0.013103817589581013,-0.04950923100113869,0.0023909860756248236
1768558761450240000,4.848239990234375,-0.001755289500579238,-0.051786765456199646,0.02002936787903309
1768558761460268800,4.858268798828125,0.004289287142455578,-0.03292759135365486,-0.01341567374765873
1768558761470297900,4.8682978515625,0.0013736584223806858,-0.019771307706832886,0.018013354390859604
1768558761480328000,4.878327880859375,-0.0063002402894198895,-0.05760470777750015,0.02117346227169037
1768558761490357000,4.88835693359375,-0.012975453399121761,-0.03560886159539223,0.0010881676571443677
1768558761500385800,4.8983857421875,-0.002517219865694642,-0.008449411019682884,0.03821263462305069
1768558761510414800,4.908414794921875,-0.004671717062592506,0.03033393807709217,0.030519559979438782
1768558761520444000,4.91844384765625,0.006385727785527706,0.06761206686496735,0.005547098349779844
1768558761530472700,4.92847265625,0.0038035267498344183,0.07708120346069336,0.05077236518263817
1768558761540502800,4.938502685546875,0.011007376946508884,0.12449905276298523,0.011040933430194855
1768558761550531800,4.94853173828125,0.020738035440444946,0.15360447764396667,0.037103425711393356
1768558761560560600,4.958560546875,0.009650230407714844,0.15890176594257355,0.02984737791121006
1768558761570589700,4.968589599609375,0.009718406945466995,0.15391792356967926,0.026281937956809998
1768558761580618800,4.97861865234375,0.011780492961406708,0.1678241491317749,0.032471124082803726
1768558761590647800,4.988647705078125,0.01895238645374775,0.13869449496269226,0.010468087159097195
1768558761600677600,4.998677734375,0.028478778898715973,0.060205549001693726,0.021439777687191963
1768558761610706700,5.008706787109375,0.034090857952833176,0.019686086103320122,0.014975220896303654
1768558761620736000,5.018736083984375,0.023274429142475128,0.02442837692797184,0.019477827474474907
1768558761630764800,5.028764892578125,0.007414773106575012,0.010538927279412746,0.007721569389104843
1768558761640793900,5.0387939453125,0.008823585696518421,0.0014567491598427296,0.012495552189648151
1768558761650823000,5.048822998046875,0.009580189362168312,-0.0023483755066990852,0.020077837631106377
1768558761660853000,5.05885302734375,0.0036567864008247852,-0.0035577169619500637,0.011293933726847172
1768558761670881800,5.0688818359375,0.02400173991918564,-0.0046152579598128796,0.012809271924197674
1768558761680910800,5.078910888671875,0.02321530692279339,0.039265114814043045,-0.025288578122854233
1768558761690940000,5.08893994140625,-0.011039867997169495,0.09899875521659851,-0.07126165926456451
1768558761700968700,5.09896875,-0.04259726032614708,0.04391739144921303,-0.15359488129615784
1768558761710998800,5.108998779296875,-0.01840750314295292,0.04319194331765175,-0.0035412053111940622
1768558761721027800,5.11902783203125,0.006882673595100641,0.12791429460048676,-0.018796324729919434
1768558761731057000,5.129056884765625,-0.0329747274518013,0.11053822934627533,-0.06895989179611206
1768558761741085700,5.139085693359375,0.010863034054636955,0.04428277537226677,-0.03194461762905121
1768558761751114800,5.14911474609375,0.01474352553486824,0.09054961055517197,-0.032466862350702286
1768558761761143800,5.159143798828125,0.010930944234132767,0.018092717975378036,-0.005784385837614536
1768558761771173600,5.169173583984375,0.003290868131443858,-0.020000606775283813,-0.032882049679756165
1768558761781202700,5.17920263671875,-0.015620770864188671,-0.06431214511394501,0.0117914117872715
1768558761791231700,5.189231689453125,-0.023798273876309395,-0.09190888702869415,-0.04585324227809906
1768558761801260800,5.1992607421875,-0.03111743927001953,-0.14475665986537933,-0.008361260406672955
1768558761811289900,5.209289794921875,-0.020716464146971703,-0.14047881960868835,-0.013020194135606289
1768558761821320000,5.21931982421875,-0.02936694398522377,-0.11464641988277435,-0.006592122372239828
1768558761831349000,5.229348876953125,-0.009975402615964413,-0.11147353053092957,0.0075758942402899265
1768558761841377800,5.239377685546875,-0.009265935979783535,-0.05362221598625183,-0.017348896712064743
1768558761851406800,5.24940673828125,0.001954760169610381,-0.05969475582242012,0.009890713728964329
1768558761861436000,5.259435791015625,-0.004900216590613127,-0.042510975152254105,-0.0049673281610012054
1768558761871464700,5.269464599609375,0.014642059803009033,-0.04462845250964165,0.008564193733036518
1768558761881494800,5.279494873046875,-0.00960042979568243,-0.014859906397759914,0.014396782033145428
1768558761891523800,5.28952392578125,0.0007022755453363061,-0.03731195256114006,0.015090536326169968
1768558761901553000,5.299552978515625,-0.020909542217850685,-0.03123888000845909,0.03009025752544403
1768558761911581700,5.309581787109375,-0.024468058720231056,-0.059171177446842194,0.00507092522457242
1768558761921610800,5.31961083984375,-0.004456533584743738,-0.10728171467781067,0.045585595071315765
1768558761931640800,5.329640869140625,-0.014055364765226841,-0.15495017170906067,0.004080761689692736
1768558761941669600,5.339669677734375,0.004853610880672932,-0.172299325466156,0.014634336344897747
1768558761951698700,5.34969873046875,-0.0065535069443285465,-0.14028599858283997,-0.011154649779200554
1768558761961727700,5.359727783203125,-0.00009640643111197278,-0.1397927850484848,0.015447399578988552
1768558761971756800,5.3697568359375,-0.009860087186098099,-0.047147005796432495,0.012043346650898457
1768558761981785900,5.379785888671875,-0.005656553898006678,-0.03175713121891022,0.0204504132270813
1768558761991815700,5.389815673828125,-0.0036128442734479904,0.03079812601208687,-0.0014503574930131435
1768558762001845000,5.399844970703125,0.003195793367922306,0.06875669211149216,0.011688081547617912
1768558762011873800,5.409873779296875,0.005083441734313965,0.11620224267244339,0.024160197004675865
1768558762021902800,5.41990283203125,0.010742126032710075,0.13977281749248505,-0.002487392397597432
1768558762031932000,5.429931884765625,-0.011255051009356976,0.11804141849279404,-0.0022748722694814205
1768558762041962000,5.4399619140625,-0.0011622034944593906,0.058522965759038925,0.012026835232973099
1768558762051990800,5.44999072265625,-0.01122176181524992,0.08763477951288223,0.003397927153855562
1768558762062019800,5.460019775390625,-0.003326554549857974,0.04442419111728668,-0.015267103910446167
1768558762072049000,5.470048828125,-0.018878083676099777,0.07467450201511383,-0.013610084541141987
1768558762082077700,5.48007763671875,-0.013683854602277279,0.07187844812870026,-0.03321947157382965
1768558762092106800,5.490106689453125,-0.013143232092261314,0.10217323899269104,0.01540745235979557
1768558762102136800,5.50013671875,-0.0060083577409386635,0.11126819998025894,-0.027636954560875893
1768558762112166000,5.510165771484375,0.006785734556615353,0.12992390990257263,0.015541941858828068
1768558762122194700,5.520194580078125,0.00823982059955597,0.1636832058429718,-0.012354936450719833
1768558762132223700,5.5302236328125,-0.004048537462949753,0.18749213218688965,0.012799951247870922
1768558762142252800,5.540252685546875,0.01143002137541771,0.19434311985969543,-0.0018469021888449788
1768558762152282600,5.55028271484375,-0.0017425062833353877,0.19183015823364258,0.018337994813919067
1768558762162311700,5.560311767578125,-0.008984706364572048,0.19071748852729797,-0.017135577276349068
1768558762172341000,5.570341064453125,-0.007524229120463133,0.19500623643398285,-0.00890880636870861
1768558762182369800,5.580369873046875,0.0012117383303120732,0.1818707287311554,-0.016392022371292114
1768558762192398800,5.59039892578125,-0.011346397921442986,0.20482398569583893,0.011204984039068222
1768558762202429000,5.600428955078125,-0.004745220299810171,0.17810901999473572,-0.04385453835129738
1768558762212458000,5.6104580078125,0.0023289343807846308,0.2093963623046875,-0.008291485719382763
1768558762222486800,5.62048681640625,-0.009351690299808979,0.19412021338939667,0.008868060074746609
1768558762232515800,5.630515869140625,0.0073383403941988945,0.27306854724884033,-0.03548156097531319
1768558762242545000,5.640544921875,0.025438513606786728,0.37989726662635803,0.008437426760792732
1768558762252575000,5.650574951171875,0.029588518664240837,0.41202351450920105,0.007333280518651009
1768558762262603800,5.660603759765625,0.02473224513232708,0.4105968475341797,0.02093564160168171
1768558762272632800,5.6706328125,0.0327206626534462,0.4238295555114746,-0.007786284200847149
1768558762282662000,5.680661865234375,0.035771846771240234,0.4543222188949585,0.02646889165043831
1768558762292690700,5.690690673828125,0.031093204393982887,0.42245563864707947,0.017720140516757965
1768558762302720800,5.700720703125,-0.005064799915999174,0.3823622763156891,0.020502878352999687
1768558762312749800,5.710749755859375,-0.0028671592008322477,0.2411188781261444,-0.004607534967362881
1768558762322778600,5.720778564453125,-0.013215670362114906,0.15220578014850616,0.0029606360476464033
1768558762332807700,5.7308076171875,-0.01847248338162899,0.001612011343240738,-0.022732742130756378
1768558762342836700,5.740836669921875,-0.02906600572168827,-0.15789136290550232,-0.03128521889448166
1768558762352866000,5.750865966796875,-0.008593488484621048,-0.17566849291324615,-0.02014841139316559
1768558762362896000,5.760895751953125,-0.00603498937562108,-0.10227151215076447,-0.0382552444934845
1768558762372925000,5.770925048828125,-0.0036709012929350138,-0.07292640209197998,0.011082478798925877
1768558762382954200,5.780954345703125,0.005814213305711746,0.050152916461229324,-0.013845507986843586
1768558762392983000,5.790983154296875,0.00009161273919744417,0.23184947669506073,-0.0009534116834402084
1768558762403012900,5.801012939453125,0.007369499187916517,0.35589367151260376,0.012178901582956314
1768558762413042200,5.811042236328125,0.017846908420324326,0.43259990215301514,-0.0027718180790543556
1768558762423071000,5.821071044921875,0.016274843364953995,0.4908173978328705,0.0309845469892025
1768558762433100000,5.83110009765625,0.02208692580461502,0.39834657311439514,0.00762782571837306
1768558762443129000,5.841129150390625,-0.00868962798267603,0.2964814603328705,-0.0005241101025603712
1768558762453159200,5.8511591796875,-0.01613103225827217,0.3076174855232239,-0.035470910370349884
1768558762463188000,5.86118798828125,0.0002055960358120501,0.24935416877269745,0.003543868428096175
1768558762473217000,5.871217041015625,-0.0017651431262493134,0.28853484988212585,-0.025722406804561615
1768558762483246000,5.88124609375,-0.00977460015565157,0.2023078352212906,-0.029264943674206734
1768558762493275000,5.89127490234375,-0.014156298711895943,0.17585144937038422,-0.04994279146194458
1768558762503304000,5.901303955078125,-0.016223179176449776,0.14878948032855988,-0.04653074964880943
1768558762513334000,5.911333984375,-0.013442039489746094,0.05445072427392006,-0.05476657673716545
1768558762523363000,5.921363037109375,-0.014760836958885193,-0.019690081477165222,-0.08284508436918259
1768558762533392000,5.931391845703125,-0.019474364817142487,-0.04339195042848587,-0.07854034751653671
1768558762543421000,5.9414208984375,0.05986360087990761,-0.18488143384456635,-0.01985386572778225
1768558762553451000,5.951450927734375,0.05902869999408722,-0.13682548701763153,-0.05976985767483711
1768558762563480000,5.96147998046875,0.059294216334819794,-0.21525877714157104,-0.042884618043899536
1768558762573508900,5.9715087890625,0.0725753977894783,-0.33552661538124084,-0.08526802808046341
1768558762583538200,5.9815380859375,0.05465206131339073,-0.4319162666797638,-0.07618531584739685
1768558762593567200,5.991567138671875,0.0769384577870369,-0.560826301574707,-0.12327772378921509
1768558762603596800,6.0015966796875,0.2222924530506134,-0.8035265803337097,-0.23574994504451752
1768558762613626000,6.011626220703125,-0.2298891246318817,-0.22130842506885529,-0.026018816977739334
1768558762623655200,6.0216552734375,-0.18043449521064758,-1.4876463413238525,0.29979151487350464
1768558762633684000,6.03168408203125,-0.07044460624456406,-0.8788383603096008,-0.1428666114807129
1768558762643713000,6.041713134765625,-0.05597458407282829,-1.0073686838150024,0.07214849442243576
1768558762653743000,6.0517431640625,-0.04428836703300476,-0.8657925724983215,-0.03711807355284691
1768558762663772200,6.061772216796875,-0.013314473442733288,-1.0298068523406982,0.02292795293033123
1768558762673801000,6.071801025390625,-0.0246648658066988,-0.88950514793396,-0.0046661244705319405
1768558762683830000,6.081830078125,0.014972558245062828,-0.8939547538757324,0.018877550959587097
1768558762693859000,6.091859130859375,0.0173875130712986,-0.7705078721046448,-0.000040480048483004794
1768558762703889200,6.10188916015625,0.01410649809986353,-0.6179801225662231,-0.009364473633468151
1768558762713918000,6.11191796875,0.016285229474306107,-0.356176495552063,-0.03539261221885681
1768558762723947000,6.121947021484375,0.026877686381340027,-0.20281249284744263,0.025240641087293625
1768558762733976000,6.13197607421875,0.025912556797266006,0.010153035633265972,-0.0035361452028155327
1768558762744004900,6.1420048828125,0.048641037195920944,0.3016389310359955,0.011169830337166786
1768558762754035000,6.152034912109375,0.08713330328464508,0.4734879434108734,0.05429093539714813
1768558762764064000,6.16206396484375,0.1537187248468399,0.5855202078819275,0.11251908540725708
1768558762774092800,6.1720927734375,0.09864455461502075,0.8051792979240417,0.03794551640748978
1768558762784122000,6.1821220703125,0.07985302060842514,0.8527889251708984,0.10496103763580322
1768558762794151200,6.192151123046875,0.11421871930360794,0.8037838339805603,0.09148863703012466
1768558762804181000,6.202180908203125,0.07252586632966995,0.7215318083763123,0.08782785385847092
1768558762814210000,6.2122099609375,0.04370034113526344,0.6863301396369934,0.07650169730186462
1768558762824239000,6.222239013671875,0.07829160988330841,0.5088395476341248,0.11753462255001068
1768558762834268200,6.23226806640625,0.07984236627817154,0.4599428176879883,0.14436942338943481
1768558762844298200,6.24229833984375,-0.041252896189689636,0.16485951840877533,-0.16659830510616302
1768558762854327000,6.2523271484375,-0.10016335546970367,-0.012053733691573143,-0.06351026892662048
1768558762864356000,6.262356201171875,0.007623564917594194,0.012539760209619999,-0.02256123535335064
1768558762874385200,6.27238525390625,-0.01034744642674923,-0.10524412989616394,-0.03526158258318901
1768558762884414000,6.2824140625,-0.027669444680213928,-0.11117925494909286,-0.0166130643337965
1768558762894444000,6.292444091796875,0.0025217472575604916,-0.17097307741641998,-0.04448118060827255
1768558762904473000,6.30247314453125,0.011412976309657097,-0.1711120903491974,-0.03717932477593422
1768558762914502000,6.312501953125,-0.006375607568770647,-0.20984964072704315,-0.010574880056083202
1768558762924531000,6.322531005859375,-0.02333941124379635,-0.23933295905590057,-0.03493987396359444
1768558762934560000,6.33256005859375,-0.051772914826869965,-0.15980537235736847,-0.044428981840610504
1768558762944590000,6.342590087890625,-0.05422648787498474,-0.40433841943740845,-0.061297446489334106
1768558762954619000,6.352618896484375,-0.07375597953796387,-0.46872299909591675,-0.04379435256123543
1768558762964648000,6.36264794921875,-0.054731953889131546,-0.547083854675293,-0.05206106975674629
1768558762974677000,6.372677001953125,-0.08121389895677567,-0.47860732674598694,-0.03249748796224594
1768558762984706000,6.3827060546875,-0.06037279590964317,-0.5751378536224365,-0.007173757068812847
1768558762994735900,6.39273583984375,0.009580455720424652,-0.6220422387123108,-0.011827630922198296
1768558763004765000,6.402764892578125,-0.027411917224526405,-0.4282730519771576,-0.060209810733795166
1768558763014794000,6.4127939453125,-0.026812706142663956,-0.20991913974285126,-0.031136346980929375
1768558763024823000,6.422822998046875,-0.013143232092261314,0.08657164126634598,-0.013760287314653397
1768558763034852900,6.432852783203125,0.010815363377332687,0.40730997920036316,0.00884755328297615
1768558763044882200,6.442882080078125,0.018026137724518776,0.7859297394752502,0.04410194605588913
1768558763054911200,6.4529111328125,0.048712145537137985,1.1310969591140747,0.0416363924741745
1768558763064940000,6.46293994140625,0.06049050763249397,1.394752025604248,0.042698994278907776
1768558763074969000,6.472968994140625,0.05933283269405365,1.7484195232391357,0.04246410354971886
1768558763084999200,6.482999267578125,0.03572843596339226,2.2310400009155273,0.038718368858098984
1768558763095028000,6.493028076171875,-0.03370976075530052,2.8281328678131104,-0.02251356467604637
1768558763105057000,6.50305712890625,0.04273414611816406,2.895550012588501,0.002660498023033142
1768558763115086000,6.513086181640625,0.04379195719957352,2.502462387084961,-0.0526307187974453
1768558763125116200,6.5231162109375,0.008382831700146198,1.7294483184814453,-0.08921616524457932
1768558763135145000,6.53314501953125,-0.002438922878354788,0.8465983867645264,0.055743955075740814
1768558763145174000,6.543174072265625,0.02244432270526886,0.29493895173072815,0.04370460286736488
1768558763155203000,6.553203125,-0.0023435817565768957,-0.20198744535446167,-0.00526533555239439
1768558763165231900,6.56323193359375,-0.024539697915315628,-0.5401162505149841,0.008945558220148087
1768558763175262000,6.573261962890625,-0.00962706096470356,-0.8326013684272766,-0.0367465615272522
1768558763185291000,6.583291015625,-0.02869369648396969,-1.0182604789733887,-0.041604965925216675
1768558763195320000,6.593320068359375,-0.05469946563243866,-1.084298014640808,-0.040708016604185104
1768558763205348900,6.603348876953125,-0.030534472316503525,-1.0270134210586548,-0.03479126840829849
1768558763215378000,6.6133779296875,-0.0321321040391922,-0.8877053260803223,-0.025074992328882217
1768558763225408000,6.623407958984375,-0.031569112092256546,-0.8158532977104187,-0.04500875249505043
1768558763235436800,6.633436767578125,-0.0489659458398819,-0.7371819019317627,-0.03556598350405693
1768558763245466000,6.643466064453125,-0.02275058627128601,-0.7673986554145813,-0.025123195722699165
1768558763255495200,6.6534951171875,-0.016142750158905983,-0.7192753553390503,-0.061593856662511826
1768558763265525000,6.66352490234375,-0.06703788787126541,-0.7066823244094849,-0.07292507588863373
1768558763275554000,6.673553955078125,-0.05162378028035164,-0.7419148683547974,-0.057079531252384186
1768558763285583000,6.6835830078125,-0.03273344412446022,-0.7071337103843689,-0.0789472758769989
1768558763295612200,6.693612060546875,-0.06594466418027878,-0.7208766937255859,-0.10625240206718445
1768558763305641000,6.703640869140625,-0.04356532171368599,-0.8318554162979126,-0.06400348246097565
1768558763315671000,6.713671142578125,-0.0395498052239418,-0.9079893231391907,-0.06684774160385132
1768558763325700000,6.7237001953125,-0.06587009131908417,-0.8759251236915588,-0.07313653081655502
1768558763335729200,6.733729248046875,-0.032821062952280045,-0.8834658861160278,-0.029270537197589874
1768558763345758000,6.743758056640625,-0.0010865697404369712,-0.8885096311569214,-0.017196297645568848
1768558763355788300,6.753788330078125,-0.00205276464112103,-1.0161844491958618,-0.04358076676726341
1768558763365817000,6.763817138671875,-0.022714100778102875,-0.9901041388511658,-0.040051013231277466
1768558763375846100,6.77384619140625,-0.02791711874306202,-0.9120897650718689,-0.012576512061059475
1768558763385875200,6.783875244140625,-0.03507915884256363,-0.7486798167228699,0.00202240445651114
1768558763395904000,6.793904052734375,-0.03350948914885521,-0.6445283889770508,-0.008150071837008
1768558763405934000,6.80393408203125,-0.034081004559993744,-0.49091431498527527,0.009228918701410294
1768558763415963100,6.813963134765625,-0.020894629880785942,-0.04867805540561676,-0.0181084293872118
1768558763425992200,6.8239921875,-0.00020453077740967274,0.001335575245320797,-0.11592686921358109
1768558763436021000,6.83402099609375,-0.029942452907562256,-0.15535444021224976,-0.07563244551420212
1768558763446051000,6.844051025390625,-0.0421714223921299,-0.19283443689346313,-0.07431231439113617
1768558763456080100,6.854080078125,-0.04986795783042908,-0.25850024819374084,-0.08204906433820724
1768558763466109000,6.86410888671875,-0.03224821761250496,-0.23876996338367462,-0.036978255957365036
1768558763476138200,6.87413818359375,-0.026492327451705933,-0.15172481536865234,-0.024518392980098724
1768558763486167300,6.884167236328125,0.002371811307966709,-0.0699165016412735,0.007754592224955559
1768558763496197000,6.894197021484375,0.01721840165555477,-0.16291753947734833,0.01727246306836605
1768558763506226200,6.90422607421875,0.010304569266736507,-0.15796193480491638,0.07027975469827652
1768558763516255200,6.914255126953125,0.010508833453059196,-0.2136204093694687,0.06977908313274384
1768558763526284300,6.9242841796875,-0.011233479715883732,-0.1124304011464119,0.04718295857310295
1768558763536314400,6.934314453125,-0.006144179031252861,-0.00016884441720321774,0.024175111204385757
1768558763546343200,6.94434326171875,-0.0008705873624421656,0.13974058628082275,0.014428740367293358
1768558763556372200,6.954372314453125,-0.013508884236216545,0.23855558037757874,-0.03952184319496155
1768558763566401300,6.9644013671875,-0.0054637412540614605,0.15582874417304993,-0.04694593697786331
1768558763576430000,6.97443017578125,-0.010342651978135109,-0.00538571085780859,-0.057977281510829926
1768558763586460200,6.984460205078125,-0.02995816431939602,-0.23968103528022766,-0.06315047293901443
1768558763596489200,6.9944892578125,-0.006375873927026987,-0.4264644980430603,-0.020499948412179947
1768558763606518000,7.00451806640625,0.0013249226612970233,-0.5713260769844055,0.006163619924336672
1768558763616547000,7.014547119140625,0.010673416778445244,-0.6420031785964966,-0.018671421334147453
1768558763626577200,7.0245771484375,0.003626426449045539,-0.6383978128433228,0.002987001556903124
1768558763636606200,7.034606201171875,-0.005636846646666527,-0.6247954368591309,-0.026383403688669205
1768558763646635000,7.044635009765625,-0.01787806674838066,-0.5559258460998535,-0.060273993760347366
1768558763656664000,7.0546640625,-0.04386545717716217,-0.4331999123096466,-0.01878327503800392
1768558763666693000,7.064693115234375,0.003472229465842247,-0.39738863706588745,-0.022119417786598206
1768558763676723200,7.07472314453125,-0.02004534751176834,-0.26715126633644104,-0.015968313440680504
1768558763686752000,7.084751953125,-0.0033875408116728067,-0.24727024137973785,-0.021618476137518883
1768558763696781000,7.094781005859375,-0.0010879012988880277,-0.18364013731479645,0.002168079372495413
1768558763706810000,7.10481005859375,-0.01025583315640688,-0.11522406339645386,-0.005544168874621391
1768558763716840000,7.11483984375,-0.020490095019340515,-0.022225676104426384,-0.001612011343240738
1768558763726869000,7.124868896484375,-0.02286323718726635,0.027778901159763336,-0.031378161162137985
1768558763736898300,7.134898193359375,-0.003163036424666643,0.04200790449976921,-0.012106730602681637
1768558763746927400,7.14492724609375,-0.016588563099503517,0.057186324149370193,-0.06094431132078171
1768558763756957000,7.15495703125,-0.008056594990193844,0.027475565671920776,-0.030968036502599716
1768558763766986200,7.164986328125,-0.015717709437012672,0.019174760207533836,-0.05566592514514923
1768558763777015300,7.175015380859375,-0.016462596133351326,-0.030354443937540054,-0.0642452985048294
1768558763787044000,7.185044189453125,-0.01781148836016655,-0.21961171925067902,-0.082264244556427
1768558763797073200,7.1950732421875,-0.039978574961423874,-0.43702125549316406,-0.15738455951213837
1768558763807103200,7.205103271484375,-0.07328672707080841,-0.563445508480072,-0.25415104627609253
1768558763817132300,7.21513232421875,-0.11929203569889069,-1.1861375570297241,-0.16802015900611877
1768558763827161000,7.2251611328125,-0.05084959790110588,-1.552339792251587,-0.07755071669816971
1768558763837190100,7.235190185546875,-0.11724380403757095,-2.064061164855957,-0.10356554388999939
1768558763847220200,7.24522021484375,-0.15267635881900787,-2.3371870517730713,-0.1871054470539093
1768558763857249300,7.255249267578125,-0.17276965081691742,-1.300827145576477,-0.18947352468967438
1768558763867278000,7.265278076171875,0.004177967086434364,0.15850389003753662,-0.25594308972358704
1768558763877307100,7.27530712890625,-0.010730142705142498,0.7002867460250854,-0.23132403194904327
1768558763887337200,7.285337158203125,0.005020058713853359,0.9859568476676941,-0.13545210659503937
1768558763897366000,7.295365966796875,0.051291950047016144,1.5870565176010132,-0.057579405605793
1768558763907395000,7.30539501953125,0.06323356181383133,1.6799606084823608,0.04147633537650108
1768558763917424000,7.315424072265625,0.062311310321092606,1.42180597782135,0.10997976362705231
1768558763927453000,7.325452880859375,0.055503204464912415,1.133471131324768,0.20516858994960785
1768558763937483000,7.33548291015625,0.03911011666059494,0.5829569101333618,0.20145055651664734
1768558763947512000,7.345511962890625,0.00839508231729269,0.09558884054422379,0.1282290816307068
1768558763957541000,7.355541015625,-0.01194241363555193,-0.13993953168392181,0.0026873957831412554
1768558763967570200,7.365570068359375,-0.029413016512989998,-0.1777026206254959,-0.049065280705690384
1768558763977600000,7.37560009765625,0.004089550115168095,-0.11817244440317154,-0.012106730602681637
1768558763987629000,7.385629150390625,0.015415707603096962,-0.2206418365240097,0.12572890520095825
1768558763997658400,7.395658447265625,-0.0011773834703490138,-0.439937949180603,0.15329474210739136
1768558764007687200,7.405687255859375,-0.027418307960033417,-0.629343569278717,0.09661655128002167
1768558764017717200,7.41571728515625,-0.013291303999722004,-0.6308663487434387,0.0614234134554863
1768558764027746300,7.425746337890625,-0.01204015128314495,-0.4041040539741516,0.15309900045394897
1768558764037775000,7.435775146484375,-0.008098406717181206,-0.07379326224327087,0.17335474491119385
1768558764047804200,7.44580419921875,-0.016028234735131264,0.1664494276046753,0.14327940344810486
1768558764057834200,7.455834228515625,-0.019567575305700302,0.23267212510108948,0.12831217050552368
1768558764067863300,7.46586328125,-0.020239491015672684,0.19388504326343536,0.07422016561031342
1768558764077892000,7.47589208984375,-0.041373804211616516,-0.0318218469619751,-0.02871020883321762
1768558764087921200,7.485921142578125,-0.09341943264007568,-0.24836507439613342,-0.2257806658744812
1768558764097950200,7.4959501953125,-0.08516975492238998,-0.39822059869766235,-0.2929477095603943
1768558764107980300,7.505980224609375,-0.080199234187603,-0.39523279666900635,-0.23806023597717285
1768558764118009000,7.516009033203125,-0.015302789397537708,-0.29473549127578735,-0.11422031372785568
1768558764128038100,7.5260380859375,-0.006322877015918493,-0.22153878211975098,-0.049617353826761246
1768558764138067200,7.536067138671875,0.36142343282699585,-0.3267938196659088,0.2819075882434845
1768558764148097000,7.546096923828125,0.19467628002166748,-0.219278022646904,0.506580114364624
1768558764158126000,7.5561259765625,-0.1463092714548111,-0.040414270013570786,-0.22208979725837708
1768558764168155100,7.566155029296875,-0.7720628976821899,0.6452815532684326,-0.07475892454385757
1768558764178184000,7.576183837890625,-0.2483815848827362,-0.9538188576698303,0.5288348197937012
1768558764188214000,7.586214111328125,0.3940168023109436,-1.2132216691970825,-0.07904874533414841
1768558764198243000,7.5962431640625,-0.06203354522585869,-0.3469289243221283,-0.3212920129299164
1768558764208272100,7.606272216796875,-0.07543537020683289,-0.17622323334217072,0.19912907481193542
1768558764218301200,7.61630126953125,0.051785700023174286,-0.7255502939224243,0.1355876624584198
1768558764228331000,7.6263310546875,-0.01925545372068882,-0.135349303483963,-0.02534051053225994
1768558764238360000,7.636360107421875,0.031860195100307465,-0.4247116148471832,-0.06660352647304535
1768558764248389000,7.64638916015625,-0.04309926554560661,-0.4507048428058624,-0.1474296599626541
1768558764258418200,7.656418212890625,-0.060554955154657364,-0.6278564929962158,-0.287513792514801
1768558764268447200,7.666447265625,-0.04971003159880638,-0.5531817078590393,-0.27352529764175415
1768558764278477300,7.676477294921875,-0.03411749005317688,-0.744188129901886,-0.1290818154811859
1768558764288506000,7.686506103515625,-0.018565960228443146,-0.9084199666976929,-0.06276138871908188
1768558764298535200,7.69653515625,-0.005371595732867718,-1.0530229806900024,-0.10909079760313034
1768558764308564200,7.706564208984375,-0.0013819142477586865,-1.2661246061325073,-0.12488733977079391
1768558764318594300,7.71659423828125,-0.006257096771150827,-1.4530075788497925,-0.1062856912612915
1768558764328623000,7.726623046875,0.0035563854034990072,-1.4554729461669922,-0.05091404542326927
1768558764338652200,7.736652099609375,-0.0621802844107151,-1.341856837272644,-0.019175292924046516
1768558764348681200,7.74668115234375,-0.04255518317222595,-1.3381468057632446,-0.003787281457334757
1768558764358710500,7.75671044921875,-0.06880303472280502,-1.2618483304977417,-0.1457233726978302
1768558764368739600,7.766739501953125,-0.07083369046449661,-1.0734320878982544,-0.1685061901807785
1768558764378768400,7.776768310546875,-0.049551572650671005,-1.0880565643310547,-0.061839133501052856
1768558764388797400,7.78679736328125,0.004251736681908369,-1.237452745437622,0.012229502201080322
1768558764398827500,7.79682763671875,0.006137521006166935,-1.366201400756836,0.034998465329408646
1768558764408856600,7.806856689453125,-0.0676799789071083,-1.5151951313018799,-0.027789020910859108
1768558764418885400,7.816885498046875,-0.15120257437229156,-1.7380532026290894,-0.10870783776044846
1768558764428914400,7.82691455078125,-0.09729832410812378,-1.9111123085021973,-0.05968330428004265
1768558764438944500,7.836944580078125,-0.08845929056406021,-1.891323208808899,-0.06053604930639267
1768558764448973600,7.8469736328125,-0.11935649067163467,-1.7701126337051392,-0.10897602140903473
1768558764459002400,7.85700244140625,-0.18064062297344208,-1.5966801643371582,-0.1190856471657753
1768558764469031700,7.86703173828125,-0.15753157436847687,-1.6222320795059204,-0.08749096840620041
1768558764479061500,7.8770615234375,-0.06389349699020386,-1.8303213119506836,-0.1093701645731926
1768558764489090600,7.887090576171875,-0.0638120025396347,-2.0424251556396484,-0.22278647124767303
1768558764499119600,7.89711962890625,-0.05410344898700714,-2.0621283054351807,-0.18949110805988312
1768558764509148700,7.907148681640625,-0.14254435896873474,-2.009836196899414,-0.16612905263900757
1768558764519178800,7.9171787109375,-0.10157988965511322,-2.1303200721740723,-0.14574548602104187
1768558764529207600,7.92720751953125,-0.14111104607582092,-2.1794066429138184,-0.12947089970111847
1768558764539236600,7.937236572265625,-0.1430538296699524,-2.1259565353393555,-0.09236801415681839
1768558764549265700,7.947265625,-0.1995229572057724,-1.991362452507019,-0.11693194508552551
1768558764559294500,7.95729443359375,-0.16634956002235413,-1.9218603372573853,-0.05276734009385109
1768558764569324500,7.967324462890625,-0.1793641597032547,-1.8717657327651978,-0.04153759032487869
1768558764579353600,7.977353515625,-0.16026078164577484,-1.8022263050079346,-0.05844493210315704
1768558764589382700,7.987382568359375,-0.11769600957632065,-1.7083739042282104,0.056710682809352875
1768558764599411500,7.997411376953125,-0.0879540890455246,-1.6175116300582886,0.02468111179769039
1768558764609441500,8.007441650390625,-0.08403311669826508,-1.531097412109375,-0.06722963601350784
1768558764619470600,8.017470703125,-0.08877380937337875,-1.3955416679382324,-0.10164300352334976
1768558764629499600,8.027499755859376,-0.05709284543991089,-1.2258871793746948,-0.08082134276628494
1768558764639528400,8.037528564453124,-0.07222812622785568,-1.0506402254104614,-0.048955291509628296
1768558764649558500,8.04755859375,-0.034879419952631,-0.789684534072876,-0.025963423773646355
1768558764659587600,8.057587646484375,-0.01296346914023161,-0.5910853743553162,-0.04388383403420448
1768558764669616400,8.067616455078126,-0.027592211961746216,-0.357784241437912,-0.016027435660362244
1768558764679645400,8.0776455078125,0.02093271166086197,-0.34710443019866943,0.07685030996799469
1768558764689675500,8.087675537109375,-0.03051796182990074,-0.22570449113845825,0.03183436393737793
1768558764699704600,8.09770458984375,-0.014445784501731396,-0.2661912143230438,0.0462079755961895
1768558764709733400,8.1077333984375,-0.028784776106476784,-0.36272919178009033,0.04482419788837433
1768558764719762700,8.1177626953125,-0.0282159261405468,-0.46309441328048706,0.03889014199376106
1768558764729792500,8.12779248046875,-0.06049077585339546,-0.6736559271812439,-0.0020793962758034468
1768558764739821600,8.137821533203125,-0.04514004662632942,-0.6623095273971558,-0.049603238701820374
1768558764749850600,8.1478505859375,-0.0379529744386673,-0.6916647553443909,0.0029965888243168592
1768558764759879700,8.157879638671876,-0.06252302974462509,-0.8261149525642395,0.06652922928333282
1768558764769909500,8.167909423828124,-0.042697928845882416,-0.8775339722633362,0.008704542182385921
1768558764779938600,8.1779384765625,-0.06737478077411652,-0.9824052453041077,0.00040426786290481687
1768558764789967600,8.187967529296875,-0.008431834168732166,-1.1488157510757446,-0.009238239377737045
1768558764799996700,8.19799658203125,-0.07672353833913803,-1.2487211227416992,-0.04988500103354454
1768558764810026800,8.20802685546875,-0.024477379396557808,-1.2725608348846436,0.004924451000988483
1768558764820055600,8.2180556640625,-0.024535436183214188,-1.246131420135498,0.010106164030730724
1768558764830084600,8.228084716796875,-0.02027597650885582,-1.1433110237121582,-0.06906961649656296
1768558764840113700,8.23811376953125,0.04279273748397827,-0.9769691824913025,-0.08184879273176193
1768558764850143700,8.248143798828124,0.027842016890645027,-0.6283427476882935,-0.049799781292676926
1768558764860172500,8.258172607421875,0.058390337973833084,-0.3621925711631775,-0.05066344514489174
1768558764870201600,8.26820166015625,0.054548993706703186,-0.09921526908874512,-0.08356360346078873
1768558764880230700,8.278230712890625,-0.18109361827373505,0.3424452245235443,0.18047229945659637
1768558764890260500,8.288260498046874,0.005398227367550135,0.42778462171554565,0.10885564237833023
1768558764900289500,8.29828955078125,-0.05330104008316994,0.7464808225631714,-0.0382579080760479
1768558764910318600,8.308318603515625,-0.052854426205158234,0.9016371369361877,0.1455119252204895
1768558764920347400,8.318347412109375,-0.03909973055124283,0.9601249694824219,0.0062757390551269054
1768558764930376400,8.32837646484375,-0.04165556654334068,1.0936089754104614,0.0010436928132548928
1768558764940406500,8.338406494140624,-0.026032399386167526,0.9089462161064148,0.09946160763502121
1768558764950435600,8.348435546875,-0.056826796382665634,0.8661031126976013,0.011063037440180779
1768558764960464400,8.35846435546875,-0.06898891925811768,0.7192891836166382,-0.07888469845056534
1768558764970494500,8.368494384765626,0.09218558669090271,0.7044470906257629,0.23255415260791779
1768558764980523500,8.3785234375,0.04754088819026947,0.7257475852966309,0.24898985028266907
1768558764990552600,8.388552490234375,0.0954785868525505,0.8516751527786255,-0.044261470437049866
1768558765000581400,8.398581298828125,0.06043165177106857,1.0176905393600464,0.10436555743217468
1768558765010610700,8.408610595703125,0.09063909202814102,1.022193431854248,0.06610045582056046
1768558765020640500,8.418640625,0.06471721082925797,1.1000615358352661,-0.08298543095588684
1768558765030669600,8.428669677734375,0.042455848306417465,0.8661361336708069,-0.030582142993807793
1768558765040698600,8.43869873046875,0.028307272121310234,0.8174005746841431,-0.047876179218292236
1768558765050727700,8.448727783203125,0.02558179199695587,0.7591047883033752,-0.029998112469911575
1768558765060757800,8.4587578125,0.0355159156024456,0.7051964998245239,0.07738826423883438
1768558765070786600,8.46878662109375,0.05272526293992996,0.6813657879829407,0.03387301042675972
1768558765080815600,8.478815673828125,0.03684509918093681,0.9643189311027527,-0.062070827931165695
1768558765090844700,8.4888447265625,0.040594831109046936,1.2861530780792236,-0.008322378620505333
1768558765100874800,8.498874755859376,0.07598744332790375,1.599334478378296,0.09921819716691971
1768558765110903600,8.508903564453124,0.07369126379489899,1.8422129154205322,-0.07108189910650253
1768558765120932600,8.5189326171875,0.09337282180786133,2.0639524459838867,0.08975838124752045
1768558765130961700,8.528961669921875,0.09598751366138458,2.0302062034606934,0.06334009021520615
1768558765140991500,8.538991455078126,0.09901606291532516,2.0337977409362793,0.01980672776699066
1768558765151020500,8.5490205078125,0.09833988547325134,1.9386110305786133,0.040761545300483704
1768558765161049600,8.559049560546875,0.11325544863939285,1.7391440868377686,0.013998107053339481
1768558765171078400,8.569078369140625,0.09750205278396606,1.5267359018325806,-0.003147589974105358
1768558765181108500,8.5791083984375,0.05022508651018143,1.2488185167312622,-0.09908130764961243
1768558765191137500,8.589137451171876,0.027302727103233337,0.9408809542655945,-0.12176957726478577
1768558765201166600,8.59916650390625,0.04096687585115433,0.7487338781356812,-0.0445842444896698
1768558765211195400,8.6091953125,0.004316451493650675,0.6617273688316345,0.05843667685985565
1768558765221225500,8.6192255859375,0.0457986481487751,0.7273468375205994,0.15148966014385223
1768558765231254500,8.629254638671876,0.04158579185605049,0.8666605353355408,0.18140201270580292
1768558765241283600,8.63928369140625,0.014513961970806122,1.027653455734253,0.09796144813299179
1768558765251312400,8.6493125,0.04971295967698097,0.999267041683197,0.08385415375232697
1768558765261342500,8.659342529296875,0.01823865808546543,1.0223385095596313,0.03112090192735195
1768558765271371500,8.66937158203125,0.04837419092655182,0.951826274394989,0.04278048500418663
1768558765281400600,8.679400634765624,0.02582307532429695,0.8016570210456848,0.038296256214380264
1768558765291429600,8.6894296875,0.009426258504390717,0.6685628890991211,0.023696275427937508
1768558765301459500,8.69945947265625,0.02130209282040596,0.5740334391593933,-0.002522279741242528
1768558765311488500,8.709488525390626,0.021031249314546585,0.5751351714134216,0.03832022473216057
1768558765321517600,8.719517578125,0.014651114121079445,0.664840042591095,0.020912472158670425
1768558765331546600,8.729546630859375,0.029890520498156548,0.7612715363502502,0.014931279234588146
1768558765341576700,8.73957666015625,0.01798725686967373,0.924552321434021,0.05925640091300011
1768558765351605800,8.749605712890625,0.03711780905723572,1.1291654109954834,0.05740896239876747
1768558765361634600,8.759634521484376,0.04698881506919861,1.2173421382904053,-0.007538610137999058
1768558765371663400,8.769663330078124,0.05926864966750145,1.4251043796539307,0.1157018318772316
1768558765381693400,8.779693359375,0.0356844924390316,1.5725079774856567,-0.05476018413901329
1768558765391722500,8.789722412109375,0.10009144991636276,1.6726754903793335,0.1194707378745079
1768558765401751300,8.799751220703126,0.03910426050424576,1.6412321329116821,0.04035807400941849
1768558765411780400,8.8097802734375,0.07305503636598587,1.5704234838485718,0.023389479145407677
1768558765421810400,8.819810546875,0.05723080039024353,1.411840796470642,0.14218537509441376
1768558765431839500,8.829839599609375,0.057579405605793,1.3738672733306885,-0.048353150486946106
1768558765441868300,8.839868408203126,0.05633251368999481,1.275201678276062,0.12263936549425125
1768558765451897300,8.8498974609375,0.06049130856990814,1.2710745334625244,0.025897111743688583
1768558765461927400,8.859927490234375,0.06777451932430267,1.314881443977356,0.046597063541412354
1768558765471956500,8.86995654296875,0.062002118676900864,1.3540709018707275,0.06675425916910172
1768558765481985300,8.8799853515625,0.0734206885099411,1.4894356727600098,0.03236459568142891
1768558765492014300,8.890014404296876,0.060568537563085556,1.5647780895233154,0.09622586518526077
1768558765502044400,8.90004443359375,0.07810758799314499,1.7147170305252075,0.03936152160167694
1768558765512073200,8.9100732421875,0.06861687451601028,1.7590000629425049,0.10149785876274109
1768558765522102300,8.920102294921875,0.057917628437280655,1.7799726724624634,0.04045634716749191
1768558765532131300,8.93013134765625,0.050087135285139084,1.6812403202056885,0.08751147240400314
1768558765542161400,8.940161376953125,0.05145386978983879,1.5638638734817505,0.04904637113213539
1768558765552190200,8.950190185546875,0.03289749473333359,1.4436053037643433,0.05349358543753624
1768558765562219300,8.96021923828125,0.04619865491986275,1.3382163047790527,0.07005365192890167
1768558765572248600,8.97024853515625,0.033118005841970444,1.303729772567749,0.02377723529934883
1768558765582278400,8.9802783203125,0.04743089899420738,1.2858577966690063,0.08514818549156189
1768558765592307500,8.990307373046875,0.04290485754609108,1.2873907089233398,0.029737921431660652
1768558765602336500,9.00033642578125,0.04044143110513687,1.2811589241027832,0.06634999811649323
1768558765612366300,9.010366455078126,0.05693092569708824,1.25442636013031,0.060617007315158844
1768558765622395400,9.0203955078125,0.04356372356414795,1.205850601196289,0.02533864602446556
1768558765632424400,9.030424560546875,0.03305435553193092,1.121587872505188,-0.0017707358347252011
1768558765642453500,9.04045361328125,0.057256631553173065,0.9992808699607849,0.02550775744020939
1768558765652483600,9.050483642578126,0.031034614890813828,0.9896910786628723,-0.018062356859445572
1768558765662512400,9.060512451171874,0.0630016028881073,0.898257315158844,-0.001853293739259243
1768558765672541400,9.07054150390625,0.03857136145234108,0.9076228737831116,-0.019249327480793
1768558765682570500,9.080570556640625,0.042275551706552505,0.9585587382316589,0.0072954632341861725
1768558765692600600,9.0906005859375,0.034747593104839325,1.0079149007797241,-0.023023827001452446
1768558765702629400,9.10062939453125,0.0005579322460107505,1.0785166025161743,-0.024643294513225555
1768558765712658400,9.110658447265624,0.09655103832483292,0.9904405474662781,-0.01513128262013197
1768558765722687500,9.1206875,0.1302645355463028,1.0462944507598877,0.044928327202796936
1768558765732717300,9.13071728515625,0.11666695773601532,1.1340948343276978,-0.02900608442723751
1768558765742746400,9.140746337890626,0.12220021337270737,1.1416867971420288,0.003614442190155387
1768558765752775400,9.150775390625,0.1974124014377594,1.008234977722168,-0.009782057255506516
1768558765762804500,9.160804443359375,0.2475389540195465,1.1273603439331055,-0.340898722410202
1768558765772834300,9.170834228515625,-0.2615461051464081,1.3753455877304077,0.32498234510421753
1768558765782863400,9.18086328125,0.1642960011959076,0.5426816344261169,0.21209494769573212
1768558765792892400,9.190892333984374,-0.002912432886660099,0.9575241208076477,-0.04085342213511467
1768558765802921200,9.200921142578125,0.024892566725611687,0.9332358241081238,0.15388223528862
1768558765812951300,9.210951416015625,0.05607285723090172,1.0174905061721802,-0.03350070118904114
1768558765822980400,9.22098046875,0.04878245294094086,1.0455701351165771,0.14463014900684357
1768558765833009400,9.231009521484374,0.015397331677377224,1.1487427949905396,0.038902390748262405
1768558765843038200,9.2410380859375,0.041802309453487396,1.1661885976791382,0.08456867933273315
1768558765853068300,9.251068359375,0.05134148523211479,1.2015575170516968,0.10929852724075317
1768558765863097300,9.261097412109375,0.025784192606806755,1.2681355476379395,0.07964129745960236
1768558765873126400,9.27112646484375,0.03771914914250374,1.2156877517700195,0.12498241662979126
1768558765883155500,9.281155517578124,0.040041159838438034,1.172837734222412,0.06627622246742249
1768558765893185300,9.291185302734375,0.05356282740831375,1.111649751663208,0.06189878657460213
1768558765903214300,9.30121435546875,0.0588500015437603,1.1106531620025635,0.08127701282501221
1768558765913243400,9.311243408203126,0.04500555619597435,1.120029091835022,0.0027771443128585815
1768558765923272400,9.3212724609375,0.04483751207590103,1.0932177305221558,-0.07148190587759018
1768558765933302500,9.331302490234375,0.06400667876005173,1.1034163236618042,-0.030005568638443947
1768558765943331600,9.34133154296875,0.10051994770765305,1.1504155397415161,0.017905764281749725
1768558765953360400,9.3513603515625,0.08456414937973022,1.2002075910568237,0.06427086144685745
1768558765963389400,9.361389404296874,0.07621540874242783,1.2502350807189941,0.07934675365686417
1768558765973419500,9.37141943359375,0.06358962506055832,1.3014389276504517,0.0893929973244667
1768558765983448600,9.381448486328125,0.05157025158405304,1.3936526775360107,0.08377345651388168
1768558765993477400,9.391477294921875,0.04753023386001587,1.5144389867782593,0.10567502677440643
1768558766003506400,9.40150634765625,0.06946536153554916,1.6039830446243286,0.10437674075365067
1768558766013536500,9.41153662109375,0.030294789001345634,1.6861647367477417,0.12084412574768066
1768558766023565300,9.4215654296875,0.057072874158620834,1.6952149868011475,0.11893091350793839
1768558766033594400,9.431594482421875,0.03827894479036331,1.7027397155761719,0.03727040812373161
1768558766043624400,9.44162451171875,0.05179741606116295,1.652838945388794,0.09186094999313354
1768558766053653500,9.451653564453125,0.04909191280603409,1.60270094871521,0.04900349676609039
1768558766063682300,9.461682373046875,0.08438758552074432,1.502108097076416,0.08628934621810913
1768558766073711400,9.47171142578125,0.049856238067150116,1.5289212465286255,0.0424976572394371
1768558766083741400,9.481741455078126,0.06363676488399506,1.448115348815918,0.05170154199004173
1768558766093770500,9.4917705078125,0.07223264873027802,1.4328341484069824,0.050391800701618195
1768558766103799300,9.50179931640625,0.05688085779547691,1.465505838394165,0.06825441867113113
1768558766113828400,9.511828369140625,0.06061141565442085,1.5155482292175293,0.04941415414214134
1768558766123858400,9.5218583984375,0.09132405370473862,1.5541819334030151,0.07923836261034012
1768558766133887200,9.53188720703125,0.059663329273462296,1.5911165475845337,0.0145312724635005
1768558766143916300,9.541916259765625,0.05121951177716255,1.6266542673110962,0.06512946635484695
1768558766153945300,9.5519453125,0.11760705709457397,1.536270022392273,0.02870115265250206
1768558766163975400,9.561975341796876,0.0816141664981842,1.4969562292099,0.09439254552125931
1768558766174004200,9.572004150390624,0.05630534887313843,1.4802765846252441,0.0008735168376006186
1768558766184033300,9.582033203125,0.085728220641613,1.3280075788497925,0.05342460796236992
1768558766194062600,9.5920625,0.09455367177724838,1.4378849267959595,0.06835482269525528
1768558766204092400,9.602092529296876,0.09579496830701828,1.4260284900665283,-0.021852567791938782
1768558766214121200,9.612121337890626,0.09621681272983551,1.3257282972335815,0.026874490082263947
1768558766224150500,9.622150634765624,0.12407054752111435,1.2822295427322388,-0.028305141255259514
1768558766234179600,9.6321796875,0.14846697449684143,1.3109914064407349,-0.01522848755121231
1768558766244209400,9.64220947265625,-0.06376753002405167,1.556301474571228,0.08881589025259018
1768558766254238500,9.652238525390626,-0.00977699737995863,1.5130829811096191,0.07871771603822708
1768558766264267500,9.662267578125,-0.00415373221039772,1.4016575813293457,0.06208973750472069
1768558766274296300,9.67229638671875,-0.04483085498213768,1.3547370433807373,0.08845316618680954
1768558766284326400,9.682326416015625,-0.04121987521648407,1.2811146974563599,0.02021845243871212
1768558766294355500,9.69235546875,-0.09460240602493286,1.1571475267410278,0.0408070832490921
1768558766304384500,9.702384521484374,-0.1344699263572693,1.0521795749664307,-0.07322707772254944
1768558766314413300,9.712413330078125,0.061042580753564835,0.7452347874641418,-0.008518386632204056
1768558766324443400,9.722443359375,0.03508767858147621,1.008683443069458,0.45066437125205994
1768558766334472400,9.732472412109376,-0.01606179028749466,1.0307713747024536,0.09632706642150879
1768558766344501500,9.74250146484375,0.10121290385723114,0.9942554831504822,0.04442179203033447
1768558766354531800,9.75253173828125,0.03398406505584717,1.0527918338775635,0.1997104436159134
1768558766364561000,9.762560791015625,0.08049537241458893,1.195407509803772,-0.014613031409680843
1768558766374589700,9.772589599609375,0.05672852694988251,1.2007602453231812,0.1826648861169815
1768558766384618800,9.78261865234375,0.09035732597112656,1.2221118211746216,0.06495050340890884
1768558766394648800,9.79264892578125,0.03997164964675903,1.1858811378479004,0.09203485399484634
1768558766404678000,9.802677978515625,0.05459320545196533,1.1251897811889648,-0.07491765171289444
1768558766414706700,9.812706787109375,0.03117869235575199,1.0400704145431519,0.06494118273258209
1768558766424735700,9.82273583984375,0.01871376670897007,0.9384734630584717,0.005363340023905039
1768558766434765800,9.832765869140625,0.017106547951698303,0.8398720622062683,0.011473163962364197
1768558766444794600,9.842794677734375,0.02827877551317215,0.8337321281433105,-0.0060262009501457214
1768558766454823700,9.85282373046875,0.01895531453192234,0.844298779964447,0.02912459522485733
1768558766464852700,9.862852783203126,0.004195543937385082,0.8878118991851807,0.012018579989671707
1768558766474882800,9.8728828125,0.005619802512228489,0.8831532001495361,0.0629962757229805
1768558766484911600,9.88291162109375,0.021373998373746872,0.8397170305252075,0.01005343347787857
1768558766494940700,9.892940673828125,0.030773092061281204,0.7553888559341431,0.02148212306201458
1768558766504969700,9.9029697265625,0.02786864899098873,0.6719107627868652,0.030766434967517853
1768558766514999800,9.912999755859374,-0.003950266633182764,0.6029008030891418,0.018205635249614716
1768558766525028600,9.923028564453125,0.018190987408161163,0.46572163701057434,0.027570107951760292
1768558766535057700,9.9330576171875,0.010881676338613033,0.4069232940673828,0.024508804082870483
1768558766545087700,9.943087646484376,0.006395048461854458,0.36771464347839355,0.01889033429324627
1768558766555116500,9.953116455078124,0.033433590084314346,0.34103429317474365,0.014121944084763527
1768558766565145900,9.963145751953125,0.021812887862324715,0.36931759119033813,0.0005819007055833936
1768558766575175000,9.9731748046875,0.027167705819010735,0.44248872995376587,0.010688597336411476
1768558766585204700,9.983204833984376,0.029165076091885567,0.521313488483429,0.023631026968359947
1768558766595233800,9.99323388671875,0.029635390266776085,0.607668936252594,-0.038365498185157776
1768558766605262800,10.003262939453125,0.026459570974111557,0.7334215044975281,0.029835926368832588
1768558766615292000,10.0132919921875,0.04388489946722984,0.8246363997459412,0.043366383761167526
1768558766625322000,10.023322021484375,0.024203605949878693,0.8972477316856384,0.011152519844472408
1768558766635350800,10.033350830078126,0.029799174517393112,0.9322043657302856,0.03802328184247017
1768558766645379800,10.0433798828125,0.04398103803396225,0.9706817269325256,0.05531278997659683
1768558766655409000,10.053408935546875,0.0646442398428917,0.9472246170043945,0.01061882171779871
1768558766665438700,10.063438720703125,0.04661916568875313,0.938451886177063,0.05411862954497337
1768558766675467800,10.0734677734375,0.04905462637543678,0.885019838809967,0.06562960892915726
1768558766685496800,10.083496826171874,0.026380207389593124,0.8250100016593933,0.04737337306141853
1768558766695526000,10.09352587890625,0.03002394549548626,0.7518513798713684,0.011288341134786606
1768558766705555700,10.1035556640625,0.0203380286693573,0.6499617695808411,0.04117326810956001
1768558766715584800,10.113584716796876,0.024115456268191338,0.6372305154800415,-0.006993460934609175
1768558766725613800,10.12361376953125,0.015246863476932049,0.5864043831825256,0.03869945928454399
1768558766735644000,10.133643798828125,0.036850426346063614,0.4998684227466583,-0.02929929830133915
1768558766745672700,10.143672607421875,0.022004101425409317,0.3953776955604553,0.015277756378054619
1768558766755701800,10.15370166015625,-0.01025556679815054,0.33640411496162415,0.01278770063072443
1768558766765730800,10.163730712890626,0.06401200592517853,0.1335330307483673,-0.06923073530197144
1768558766775760600,10.1737607421875,0.007786550559103489,0.10646865516901016,0.033898044377565384
1768558766785789700,10.183789794921875,-0.008522914722561836,0.16620175540447235,-0.0041302964091300964
1768558766795818800,10.19381884765625,0.004351605195552111,0.12273843586444855,-0.024050207808613777
1768558766805847800,10.203847900390626,0.017555823549628258,0.207732155919075,0.03747067600488663
1768558766815877600,10.213877685546874,-0.0025965820532292128,0.2865614593029022,-0.010091782547533512
1768558766825906700,10.22390673828125,-0.001008539111353457,0.3800184428691864,0.03821556270122528
1768558766835935700,10.233935791015625,0.017669275403022766,0.36605706810951233,0.01056209672242403
1768558766845964500,10.243964599609376,0.00466532539576292,0.2992303669452667,0.013643906451761723
1768558766855994600,10.25399462890625,-0.00019334549142513424,0.22195929288864136,-0.007155647501349449
1768558766866023700,10.264023681640625,0.0023094932548701763,0.1461939662694931,-0.01739603467285633
1768558766876052700,10.274052734375,0.02635091356933117,0.09609910100698471,-0.04023876413702965
1768558766886082800,10.284082763671876,-0.014487596228718758,0.14035232365131378,0.03304396942257881
1768558766896111600,10.294111572265624,0.008496016263961792,0.1642746925354004,-0.022785473614931107
1768558766906141000,10.304140869140625,-0.0180535688996315,0.17976950109004974,0.0031225562561303377
1768558766916170000,10.314169921875,0.0018634138396009803,0.12313045561313629,0.005645102355629206
1768558766926199600,10.324199462890626,0.0008183894096873701,0.0971105694770813,0.020436830818653107
1768558766936228900,10.334228759765624,-0.016634903848171234,0.12418825924396515,-0.013401293195784092
1768558766946258000,10.3442578125,-0.005697034299373627,0.14836736023426056,0.017891382798552513
1768558766956286700,10.35428662109375,0.013849768787622452,0.11283121258020401,0.002252235310152173
1768558766966316800,10.36431689453125,-0.012998622842133045,0.16986200213432312,-0.0018269284628331661
1768558766976345900,10.374345947265626,-0.007978031411767006,0.1701352447271347,-0.009644904173910618
1768558766986375000,10.384375,0.044681183993816376,-0.0731612965464592,0.08786594122648239
1768558766996403700,10.39440380859375,0.0344913974404335,-0.10361001640558243,0.17398324608802795
1768558767006433800,10.404433837890625,0.060076385736465454,-0.030344856902956963,-0.0054182009771466255
1768558767016462800,10.414462890625,0.019782759249210358,-0.01242311391979456,-0.05232924968004227
1768558767026492000,10.424491943359374,-0.03021356277167797,-0.12199434638023376,-0.05110180005431175
1768558767036520700,10.434520751953125,-0.02858930081129074,-0.2788665294647217,-0.08149059861898422
1768558767046550800,10.44455078125,-0.050809916108846664,-0.2738672196865082,-0.04995451122522354
1768558767056579800,10.454579833984376,-0.0151986600831151,-0.2706221640110016,-0.04085874930024147
1768558767066608600,10.464608642578124,-0.05048581212759018,-0.46637463569641113,-0.04584019258618355
1768558767076638700,10.474638671875,-0.05275748670101166,-0.5916470885276794,-0.11748801171779633
1768558767086667800,10.484667724609375,-0.06893272697925568,-0.47198963165283203,-0.1668475717306137
1768558767096696800,10.49469677734375,-0.022657908499240875,-0.4501756727695465,-0.21707186102867126
1768558767106725600,10.5047255859375,0.012470251880586147,-0.4508979320526123,-0.2341696172952652
1768558767116755700,10.514755615234375,0.02449895069003105,-0.5368008613586426,-0.2068762183189392
1768558767126784800,10.52478466796875,0.110068179666996,-0.39495211839675903,-0.4216407239437103
1768558767136813800,10.534813720703125,-0.10112874954938889,-0.10031755268573761,-0.557252049446106
1768558767146842600,10.544842529296876,-0.09757822006940842,0.32463693618774414,-0.058332014828920364
1768558767156872700,10.554872802734375,-0.008556470274925232,0.4717875123023987,0.3133299648761749
1768558767166901800,10.56490185546875,0.05812641978263855,0.7058277130126953,0.30811840295791626
1768558767176930600,10.5749306640625,0.03593110293149948,0.8255844712257385,0.03699024021625519
1768558767186959600,10.584959716796876,0.058404453098773956,0.6394904851913452,0.07796084135770798
1768558767196989700,10.59498974609375,0.06299068033695221,0.461113303899765,0.14694364368915558
1768558767207018800,10.605018798828125,0.0167909637093544,0.46226775646209717,0.13932514190673828
1768558767217047800,10.6150478515625,0.0024852619972079992,0.10380762070417404,0.15100842714309692
1768558767227077600,10.62507763671875,-0.003924434073269367,-0.09759978950023651,0.10833445936441422
1768558767237106700,10.635106689453124,-0.01363325398415327,-0.3053756356239319,-0.0009606021922081709
1768558767247136000,10.645135986328125,-0.016442889347672462,-0.5372117757797241,0.043598875403404236
1768558767257164800,10.655164794921875,-0.030398918315768242,-0.6506379246711731,0.018025338649749756
1768558767267194600,10.665194580078126,-0.03796922042965889,-0.6680076122283936,-0.11286822706460953
1768558767277224000,10.675223876953124,-0.04156262427568436,-0.7061643004417419,-0.11057950556278229
1768558767287252700,10.685252685546875,-0.05216493457555771,-0.8545908331871033,0.0748036652803421
1768558767297281800,10.69528173828125,-0.03235980495810509,-0.9860079288482666,0.009642773307859898
1768558767307311900,10.705311767578126,-0.04506707563996315,-1.0756467580795288,-0.09242420643568039
1768558767317341000,10.7153408203125,-0.06857267022132874,-1.093267560005188,-0.1300882250070572
1768558767327369700,10.72536962890625,-0.05649656429886818,-1.0989142656326294,-0.146111398935318
1768558767337399800,10.73539990234375,-0.0570845901966095,-1.308217167854309,-0.2513139843940735
1768558767347428900,10.745428955078125,-0.055925317108631134,-1.5669187307357788,-0.39200106263160706
1768558767357458200,10.755458251953126,-0.0801723301410675,-1.860618233680725,-0.2307027131319046
1768558767367487000,10.765487060546874,-0.10403718799352646,-2.0673446655273438,0.08501262962818146
1768558767377517000,10.77551708984375,-0.10790276527404785,-2.030240535736084,0.20500747859477997
1768558767387546000,10.785546142578125,-0.07605215907096863,-1.697297215461731,0.1611231118440628
1768558767397575000,10.795574951171876,-0.07519222050905228,-0.9709661602973938,0.1538819670677185
1768558767407604000,10.80560400390625,-0.02857092395424843,-0.9544699788093567,0.13102886080741882
1768558767417634000,10.815634033203125,0.007418501656502485,-0.9553211331367493,0.06817053258419037
1768558767427663000,10.8256630859375,-0.039017438888549805,-0.7219523191452026,-0.05145173892378807
1768558767437692000,10.83569189453125,0.0054269894026219845,-0.7532175779342651,-0.0691542997956276
1768558767447722000,10.845721923828124,0.0033715618774294853,-0.6763036251068115,0.0017955031944438815
1768558767457751000,10.8557509765625,-0.03843394294381142,-0.7065927982330322,-0.025904567912220955
1768558767467780000,10.865780029296875,-0.009846772067248821,-0.6773971319198608,-0.01555392611771822
1768558767477809000,10.875808837890625,0.03448181226849556,-0.7989139556884766,-0.015146462246775627
1768558767487839000,10.8858388671875,-0.024163926020264626,-0.8486676812171936,0.10708624124526978
1768558767497868000,10.895867919921875,0.01678483933210373,-0.8710829615592957,0.09102284908294678
1768558767507897000,10.90589697265625,0.021227257326245308,-0.9201580882072449,0.13042192161083221
1768558767517926000,10.91592578125,-0.019691146910190582,-0.7864072322845459,-0.010447847656905651
1768558767527956000,10.9259560546875,-0.06403171271085739,-0.7517666816711426,-0.08941803127527237
1768558767537985000,10.935985107421875,-0.039450470358133316,-0.7179450988769531,-0.02503584511578083
1768558767548013800,10.946013916015625,-0.028314994648098946,-0.5355417132377625,-0.044738709926605225
1768558767558043000,10.95604296875,-0.022313028573989868,-0.31739047169685364,-0.028325380757451057
1768558767568073000,10.966072998046876,-0.00017496968212071806,-0.23580826818943024,-0.009950635023415089
1768558767578102000,10.97610205078125,0.007063501980155706,-0.07806124538183212,0.008507201448082924
1768558767588131000,10.986131103515625,-0.012006063014268875,0.17091315984725952,0.031977105885744095
1768558767598161000,10.996160888671875,0.005450159311294556,0.3125602900981903,0.05470239371061325
1768558767608190000,11.00618994140625,0.009707488119602203,0.3822091519832611,0.040223851799964905
1768558767618219300,11.01621923828125,0.0176991019397974,0.4091760516166687,0.03761741518974304
1768558767628248000,11.026248046875,0.0024780714884400368,0.4242194592952728,0.02905375510454178
1768558767638278000,11.03627783203125,-0.01950472593307495,0.5022940039634705,0.03521045297384262
1768558767648307200,11.04630712890625,0.004009921569377184,0.5418616533279419,0.07370298355817795
1768558767658336000,11.0563359375,-0.011775965802371502,0.6916098594665527,0.020622454583644867
1768558767668365000,11.066364990234375,-0.021830996498465538,0.8579213619232178,0.0377737432718277
1768558767678395100,11.07639501953125,0.016042349860072136,1.0459210872650146,0.041734129190444946
1768558767688424200,11.086424072265626,0.03538062795996666,1.1988933086395264,0.030820230022072792
1768558767698453000,11.096452880859376,0.03789225593209267,1.2956387996673584,0.025721341371536255
1768558767708483000,11.106483154296875,0.05819805711507797,1.3122936487197876,0.0028003137558698654
1768558767718512000,11.11651220703125,0.08329781889915466,1.319212794303894,0.01631665602326393
1768558767728541200,11.126541259765625,0.0782625824213028,1.1989260911941528,-0.00007190534961409867
1768558767738570000,11.136570068359376,0.03879213705658913,0.9688374996185303,-0.037278395146131516
1768558767748600000,11.14660009765625,0.009265403263270855,0.7298773527145386,-0.049922551959753036
1768558767758629000,11.156629150390625,0.007321029901504517,0.5208826065063477,-0.025597505271434784
1768558767768658000,11.166657958984375,0.011238273233175278,0.33325839042663574,0.10966364294290543
1768558767778687000,11.17668701171875,0.023735422641038895,0.3375213146209717,0.13082832098007202
1768558767788717000,11.186717041015624,0.0034432008396834135,0.391631156206131,0.1375994086265564
1768558767798746000,11.19674609375,-0.00714526092633605,0.4349789023399353,0.15747538208961487
1768558767808775000,11.20677490234375,-0.008510664105415344,0.4616515040397644,0.19928088784217834
1768558767818805000,11.216804931640626,-0.014182131737470627,0.7280256748199463,0.1806938797235489
1768558767828834000,11.226833984375,0.019040003418922424,0.9860204458236694,0.0018524948973208666
1768558767838863000,11.236863037109375,0.05807715281844139,0.9229254126548767,-0.0059902481734752655
1768558767848892000,11.246891845703125,0.0679905042052269,0.743743896484375,-0.0316961444914341
1768558767858922000,11.256921875,0.07839467376470566,0.5566757917404175,-0.1731017380952835
1768558767868951000,11.266950927734374,0.00421205535531044,0.43314024806022644,-0.20128624141216278
1768558767878979800,11.276979736328125,0.0018556906143203378,-0.05630801245570183,-0.1946919858455658
1768558767889009000,11.2870087890625,0.009048089385032654,-0.6037247776985168,-0.04163719341158867
1768558767899039000,11.2970390625,0.00833596009761095,-0.7674993276596069,-0.08556710183620453
1768558767909068000,11.307068115234374,-0.0441456213593483,-0.8492897748947144,-0.025592710822820663
1768558767919096800,11.317096923828124,-0.035303663462400436,-0.8781669735908508,0.025494441390037537
1768558767929127000,11.327126953125,0.008559665642678738,-0.8407740592956543,0.03750156983733177
1768558767939156000,11.337156005859375,-0.0005685848882421851,-0.7794955372810364,0.07077004015445709
1768558767949185000,11.34718505859375,-0.03672872111201286,-0.6517958641052246,0.03832581639289856
1768558767959214000,11.357214111328124,-0.08065010607242584,-0.42417603731155396,-0.006301305256783962
1768558767969244000,11.367243896484375,-0.07795791327953339,-0.27265310287475586,0.04168006777763367
1768558767979273000,11.37727294921875,-0.024049144238233566,-0.27931100130081177,0.03857988119125366
1768558767989302000,11.387302001953126,-0.04090269282460213,-0.1402798742055893,0.04555043950676918
1768558767999331000,11.3973310546875,-0.03008146956562996,-0.02798955701291561,0.018792595714330673
1768558768009361200,11.407361083984375,-0.011276889592409134,0.00788242369890213,-0.0033744913525879383
1768558768019390200,11.41739013671875,-0.0081474082544446,0.12885332107543945,-0.041734397411346436
1768558768029419000,11.4274189453125,0.002319879597052932,0.17133180797100067,-0.10929320007562637
1768558768039449000,11.437448974609374,-0.00987340323626995,0.1309465616941452,-0.15522527694702148
1768558768049478100,11.44747802734375,-0.05042322725057602,-0.018545454367995262,-0.21770010888576508
1768558768059507200,11.457507080078125,-0.07907085120677948,-0.5723644495010376,-0.20800459384918213
1768558768069536000,11.467535888671875,-0.08947155624628067,-1.0778475999832153,-0.18770837783813477
1768558768079566000,11.477566162109374,-0.12856383621692657,-1.3755887746810913,-0.16484567523002625
1768558768089595100,11.48759521484375,-0.09901712834835052,-1.4492565393447876,-0.0950053408741951
1768558768099624000,11.4976240234375,-0.27221980690956116,-0.9128019213676453,0.1170768216252327
1768558768109654000,11.507654052734376,0.08760920912027359,-1.1978321075439453,0.18526093661785126
1768558768119683000,11.51768310546875,0.002150502521544695,-0.36367860436439514,0.15380127727985382
1768558768129712000,11.527712158203125,-0.04291684180498123,0.5711540579795837,0.06628154963254929
1768558768139741000,11.537740966796875,0.05494287610054016,1.4156091213226318,0.01661519519984722
1768558768149771000,11.54777099609375,0.01871190220117569,1.7621028423309326,0.015778429806232452
1768558768159800000,11.557800048828126,0.0647536963224411,1.9242960214614868,0.007503722794353962
1768558768169829000,11.5678291015625,0.09194537252187729,2.4851324558258057,0.122723788022995
1768558768179858000,11.57785791015625,0.12354244291782379,2.9812116622924805,0.13921168446540833
1768558768189888000,11.587887939453125,0.12612038850784302,3.265500783920288,0.08544379472732544
1768558768199917000,11.5979169921875,0.11569996923208237,3.3106534481048584,0.09508310258388519
1768558768209945900,11.60794580078125,0.15306730568408966,3.1848504543304443,0.12398160248994827
1768558768219976000,11.617975830078125,0.12559014558792114,2.762376070022583,0.15226329863071442
1768558768230005000,11.6280048828125,0.13129571080207825,2.3383235931396484,0.09061644971370697
1768558768240034000,11.638033935546876,0.09260503202676773,2.0529322624206543,0.06920783221721649
1768558768250062800,11.648062744140624,0.08327038586139679,2.0383169651031494,0.0771094337105751
1768558768260093000,11.658093017578125,0.10460124164819717,2.3317346572875977,0.05847981944680214
1768558768270122000,11.6681220703125,0.09319412708282471,2.498987913131714,0.06353449821472168
1768558768280151000,11.678151123046876,0.10692565143108368,2.4917404651641846,0.08492235094308853
1768558768290179800,11.688179931640626,0.08391594141721725,2.3747291564941406,0.10361640900373459
1768558768300210000,11.6982099609375,0.0795973539352417,2.182682752609253,0.08813305199146271
1768558768310239000,11.708239013671875,0.07136818766593933,1.9928362369537354,0.11604245007038116
1768558768320268000,11.71826806640625,0.05685236304998398,1.8696072101593018,0.05997492000460625
1768558768330297900,11.7282978515625,0.06861314922571182,1.7450850009918213,0.11464349180459976
1768558768340327000,11.738326904296875,0.04110882058739662,1.678957462310791,0.10000542551279068
1768558768350356200,11.748356201171875,0.07094687968492508,1.6260685920715332,0.040040358901023865
1768558768360384800,11.758384765625,0.027476631104946136,1.6214780807495117,0.06270386278629303
1768558768370414800,11.768414794921876,0.059720322489738464,1.6508352756500244,0.09122178703546524
1768558768380444000,11.77844384765625,0.02521401084959507,1.6153755187988281,0.1085808053612709
1768558768390473000,11.788472900390625,0.06479603797197342,1.7061245441436768,0.012576778419315815
1768558768400502800,11.798502685546875,0.05993843451142311,1.8286020755767822,0.08596044778823853
1768558768410531800,11.80853173828125,0.05088954418897629,1.835654616355896,0.06621310859918594
1768558768420561000,11.818560791015624,0.09172140061855316,1.9010237455368042,0.05040964484214783
1768558768430589700,11.828589599609375,0.04588732868432999,1.7711302042007446,0.05769498646259308
1768558768440619800,11.838619873046875,0.08346559852361679,1.5913567543029785,0.038782015442848206
1768558768450648800,11.84864892578125,0.044377051293849945,1.415981411933899,0.020719658583402634
1768558768460678000,11.858677978515624,0.04608387127518654,1.2462512254714966,0.03730928897857666
1768558768470707700,11.868707763671875,0.045343514531850815,1.161415457725525,0.004028031136840582
1768558768480736800,11.87873681640625,0.06655745208263397,1.1065868139266968,-0.012493687681853771
1768558768490765800,11.888765869140625,0.04974758252501488,1.1365095376968384,-0.011123757809400558
1768558768500795000,11.898794921875,0.06381785869598389,1.1841790676116943,-0.01942669413983822
1768558768510824700,11.90882470703125,0.05577404797077179,1.256386399269104,-0.053893059492111206
1768558768520853800,11.918853759765625,0.0666021928191185,1.2700018882751465,-0.00024234765442088246
1768558768530882800,11.9288828125,0.04805780574679375,1.3735746145248413,0.018335863947868347
1768558768540911600,11.93891162109375,0.06245778501033783,1.4756120443344116,0.052683185786008835
1768558768550941700,11.948941650390625,0.06327804177999496,1.6629352569580078,0.06476914137601852
1768558768560970800,11.958970703125,0.06931675970554352,1.8085696697235107,0.12747833132743835
1768558768570999800,11.968999755859375,0.04727909713983536,1.9708811044692993,0.08339449018239975
1768558768581029600,11.979029541015626,0.05131778120994568,2.006377696990967,0.08917567878961563
1768558768591058700,11.98905859375,0.05740310624241829,2.045238733291626,0.10019424557685852
1768558768601087700,11.999087646484375,0.07098282873630524,2.0184166431427,0.14307832717895508
1768558768611116800,12.00911669921875,0.0800306499004364,1.9744771718978882,0.1215493306517601
1768558768621146600,12.019146728515626,0.05185680463910103,1.8321576118469238,0.08636178821325302
1768558768631175700,12.02917578125,0.07810945063829422,1.673445224761963,0.04820960760116577
1768558768641204700,12.039204833984375,0.045822616666555405,1.4698760509490967,0.05511997640132904
1768558768651233800,12.04923388671875,0.057500842958688736,1.3486289978027344,0.04964931309223175
1768558768661263600,12.059263671875,0.053105030208826065,1.1896686553955078,0.03511883690953255
1768558768671292700,12.069292724609374,0.04187421128153801,1.1176674365997314,0.025831330567598343
1768558768681322000,12.079322021484375,0.06668715178966522,1.0119985342025757,0.01254961360245943
1768558768691351600,12.0893515625,0.06889145076274872,1.0459173917770386,0.02148345485329628
