time,seconds_elapsed,z,y,x
1768558580705919500,0.05691943359375,-0.0106658935546875,-1.002227783203125,-0.027435302734375
1768558580715948300,0.0669482421875,-0.0116424560546875,-1.0007476806640625,-0.018798828125
1768558580725977300,0.076977294921875,-0.014129638671875,-1.001953125,-0.0258331298828125
1768558580736005600,0.087005615234375,-0.013092041015625,-1.0028076171875,-0.0260772705078125
1768558580746034400,0.097034423828125,-0.0051422119140625,-1.001800537109375,-0.0244293212890625
1768558580756063500,0.1070634765625,-0.006988525390625,-1.00213623046875,-0.0380096435546875
1768558580766092500,0.117092529296875,-0.0132293701171875,-0.99871826171875,-0.0509796142578125
1768558580776120300,0.127120361328125,-0.0185089111328125,-0.9953765869140625,-0.0571746826171875
1768558580786149400,0.1371494140625,-0.0169525146484375,-1.001708984375,-0.053131103515625
1768558580796178400,0.147178466796875,-0.007171630859375,-1.0015869140625,-0.0381011962890625
1768558580806206500,0.15720654296875,-0.02545166015625,-0.99725341796875,-0.0639190673828125
1768558580816235500,0.167235595703125,-0.0172119140625,-0.9991607666015625,-0.0528717041015625
1768558580826264300,0.177264404296875,-0.005126953125,-1.0033111572265625,-0.02435302734375
1768558580836292600,0.187292724609375,-0.0031280517578125,-1.00225830078125,-0.0178985595703125
1768558580846321400,0.1973212890625,-0.0146484375,-0.9989471435546875,-0.0359039306640625
1768558580856350500,0.2073505859375,-0.0044097900390625,-0.9997711181640625,-0.031219482421875
1768558580866379500,0.217379638671875,-0.0340118408203125,-0.9949493408203125,-0.0345306396484375
1768558580876407300,0.2274072265625,0.11871337890625,-1.0118865966796875,0.018707275390625
1768558580886436400,0.237436279296875,-0.092254638671875,-1.003173828125,0.001708984375
1768558580896465700,0.247465576171875,-0.036285400390625,-0.9945526123046875,-0.133575439453125
1768558580906493400,0.257493408203125,0.008880615234375,-1.00054931640625,-0.01007080078125
1768558580916522500,0.2675224609375,-0.0242462158203125,-1.0047607421875,-0.0265655517578125
1768558580926551300,0.27755126953125,-0.002471923828125,-0.996185302734375,-0.04498291015625
1768558580936579600,0.28757958984375,-0.014007568359375,-1.0030670166015625,-0.0292816162109375
1768558580946608600,0.297608642578125,-0.0168914794921875,-1.0017547607421875,-0.0158843994140625
1768558580956637400,0.307637451171875,-0.0293426513671875,-0.9941253662109375,-0.0681915283203125
1768558580966666500,0.31766650390625,-0.0765838623046875,-0.9904632568359375,-0.099456787109375
1768558580976694300,0.3276943359375,0.0490570068359375,-1.0084075927734375,-0.029510498046875
1768558580986723300,0.337723388671875,0.0525665283203125,-1.00787353515625,0.022857666015625
1768558580996752400,0.34775244140625,-0.0620269775390625,-0.994964599609375,-0.077484130859375
1768558581006780400,0.357780517578125,-0.00518798828125,-0.993560791015625,-0.083160400390625
1768558581016809500,0.3678095703125,0.013458251953125,-1.0038604736328125,-0.0075531005859375
1768558581026838500,0.377838623046875,-0.03643798828125,-1.0003662109375,-0.04608154296875
1768558581036866300,0.3878662109375,-0.0146636962890625,-0.993499755859375,-0.082366943359375
1768558581046895600,0.3978955078125,-0.0333251953125,-0.9990997314453125,-0.0499114990234375
1768558581056924400,0.40792431640625,0.01220703125,-1.00335693359375,-0.0318145751953125
1768558581066953500,0.417953369140625,0.0198516845703125,-0.9986419677734375,-0.02398681640625
1768558581076981500,0.4279814453125,-0.067840576171875,-0.9993133544921875,-0.0541839599609375
1768558581087010300,0.43801025390625,-0.0321807861328125,-0.9973297119140625,-0.07489013671875
1768558581097039400,0.448039306640625,-0.04058837890625,-1.000640869140625,-0.0519256591796875
1768558581107067400,0.4580673828125,-0.029998779296875,-0.99896240234375,-0.0597686767578125
1768558581117096400,0.468096435546875,-0.034271240234375,-0.998077392578125,-0.0604400634765625
1768558581127125500,0.47812548828125,-0.0326385498046875,-0.9992218017578125,-0.0596771240234375
1768558581137153300,0.4881533203125,-0.02850341796875,-0.9991607666015625,-0.0565338134765625
1768558581147182600,0.4981826171875,-0.0203399658203125,-1.00225830078125,-0.0466766357421875
1768558581157211600,0.508211669921875,-0.01165771484375,-1.0035400390625,-0.0308074951171875
1768558581167240400,0.518240478515625,0.01953125,-1.006591796875,-0.0225372314453125
1768558581177269500,0.52826953125,-0.0061492919921875,-0.9975433349609375,0.0211944580078125
1768558581187298600,0.538298583984375,-0.046661376953125,-0.9996490478515625,-0.05303955078125
1768558581197327400,0.548327392578125,-0.0270843505859375,-1.00372314453125,-0.0433349609375
1768558581207355400,0.55835546875,0.0921173095703125,-1.0047760009765625,0.0078277587890625
1768558581217384400,0.568384521484375,0.0037841796875,-1.000274658203125,0.0084075927734375
1768558581227413500,0.57841357421875,0.089630126953125,-1.0025177001953125,-0.0050811767578125
1768558581237441500,0.588441650390625,-0.0101470947265625,-1.0000762939453125,-0.004180908203125
1768558581247470300,0.59847021484375,0.0085906982421875,-1.0029449462890625,-0.0365447998046875
1768558581257499400,0.60849951171875,-0.0086669921875,-0.99517822265625,-0.0566864013671875
1768558581267527400,0.61852734375,-0.00244140625,-1.000518798828125,-0.0446319580078125
1768558581277556500,0.628556396484375,-0.01409912109375,-1.000244140625,-0.0493011474609375
1768558581287585500,0.63858544921875,-0.009246826171875,-0.9998779296875,-0.056488037109375
1768558581297614300,0.6486142578125,0.010498046875,-1.00048828125,-0.0383148193359375
1768558581307642400,0.658642333984375,0.0053558349609375,-1.000030517578125,-0.0315399169921875
1768558581317671400,0.66867138671875,0.0048828125,-1.0006103515625,-0.036529541015625
1768558581327700500,0.678700439453125,-0.012542724609375,-1.00048828125,-0.040985107421875
1768558581337728500,0.688728515625,-0.02667236328125,-1.000640869140625,-0.0516357421875
1768558581347757300,0.69875732421875,-0.02239990234375,-1.0005645751953125,-0.0426177978515625
1768558581357786400,0.708786376953125,-0.0211181640625,-1.004241943359375,-0.0351715087890625
1768558581367814700,0.718814697265625,-0.0218048095703125,-1.0019378662109375,-0.0418701171875
1768558581377843500,0.728843505859375,-0.008087158203125,-1.00128173828125,-0.0335845947265625
1768558581387872500,0.73887255859375,-0.0081329345703125,-1.0006256103515625,-0.0294952392578125
1768558581397901600,0.748901611328125,-0.0068206787109375,-1.00103759765625,-0.031646728515625
1768558581407929300,0.758929443359375,-0.0058135986328125,-1.001708984375,-0.0258941650390625
1768558581417958400,0.76895849609375,-0.0078125,-1.0009765625,-0.028289794921875
1768558581427987500,0.778987548828125,-0.020538330078125,-1.000762939453125,-0.035003662109375
1768558581438015500,0.789015380859375,-0.0144500732421875,-1.0005340576171875,-0.033782958984375
1768558581448044500,0.79904443359375,-0.0110015869140625,-1.0011444091796875,-0.0318450927734375
1768558581458073300,0.8090732421875,-0.008575439453125,-1.000030517578125,-0.034759521484375
1768558581468101400,0.819101318359375,-0.0097808837890625,-1.0014495849609375,-0.0386962890625
1768558581478130400,0.82913037109375,-0.013336181640625,-0.9994354248046875,-0.033050537109375
1768558581488159500,0.839159423828125,-0.0084991455078125,-1.00103759765625,-0.042327880859375
1768558581498187500,0.8491875,-0.005767822265625,-0.9998016357421875,-0.042449951171875
1768558581508216300,0.85921630859375,0.003662109375,-0.9998626708984375,-0.0382537841796875
1768558581518245400,0.869245361328125,-0.0049285888671875,-0.998779296875,-0.0382232666015625
1768558581528274400,0.8792744140625,-0.0058135986328125,-0.9991455078125,-0.0273895263671875
1768558581538302500,0.889302490234375,-0.00848388671875,-1.0020751953125,-0.0279541015625
1768558581548331500,0.89933154296875,-0.0124053955078125,-1.0005950927734375,-0.033050537109375
1768558581558360300,0.9093603515625,-0.0151214599609375,-1.0020904541015625,-0.034820556640625
1768558581568388400,0.919388427734375,-0.009765625,-1.000701904296875,-0.0326080322265625
1768558581578417700,0.929417724609375,-0.014129638671875,-1.0001678466796875,-0.04278564453125
1768558581588446500,0.939446533203125,-0.012359619140625,-1.000762939453125,-0.04119873046875
1768558581598474500,0.949474609375,0.003082275390625,-1.00018310546875,-0.037445068359375
1768558581608503300,0.95950341796875,-0.001251220703125,-0.99542236328125,-0.0390472412109375
1768558581618532400,0.969532470703125,-0.011810302734375,-0.9967193603515625,-0.0419921875
1768558581628560600,0.979560546875,0.0050201416015625,-1.003326416015625,-0.0455780029296875
1768558581638589400,0.98958935546875,0.0013427734375,-1.0040740966796875,-0.0312042236328125
1768558581648618500,0.999618408203125,-0.019256591796875,-1.0019989013671875,-0.0226287841796875
1768558581658647600,1.0096474609375,-0.0075225830078125,-1.000396728515625,-0.021331787109375
1768558581668675300,1.01967529296875,-0.0095977783203125,-1.001922607421875,-0.0254364013671875
1768558581678704400,1.029704345703125,-0.01898193359375,-0.997833251953125,-0.0465087890625
1768558581688733400,1.0397333984375,-0.005889892578125,-1.0022125244140625,-0.048095703125
1768558581698761500,1.049761474609375,0.0030517578125,-1.0002593994140625,-0.0321197509765625
1768558581708790500,1.05979052734375,-0.010467529296875,-0.9998779296875,-0.0417633056640625
1768558581718819300,1.0698193359375,-0.002471923828125,-1.0040435791015625,-0.0456695556640625
1768558581728847600,1.07984765625,0.0303802490234375,-1.004608154296875,0.001739501953125
1768558581738876400,1.08987646484375,0.0026092529296875,-1.0035552978515625,-0.01861572265625
1768558581748905500,1.099905517578125,-0.00408935546875,-1.001678466796875,-0.034423828125
1768558581758933500,1.10993359375,-0.0412750244140625,-0.9975738525390625,-0.0657806396484375
1768558581768962300,1.11996240234375,-0.066009521484375,-0.9954833984375,-0.0722808837890625
1768558581778991400,1.129991455078125,-0.0274658203125,-0.999481201171875,-0.06231689453125
1768558581789020400,1.1400205078125,0.000732421875,-1.004364013671875,-0.03631591796875
1768558581799048400,1.15004833984375,-0.018585205078125,-0.998779296875,-0.0218658447265625
1768558581809077500,1.160077392578125,-0.04022216796875,-1.000091552734375,-0.0624237060546875
1768558581819106300,1.170106201171875,0.02178955078125,-1.005035400390625,0.0009765625
1768558581829134600,1.180134521484375,-0.0128631591796875,-1.000946044921875,-0.024169921875
1768558581839163600,1.19016357421875,-0.0195465087890625,-0.99981689453125,-0.0488739013671875
1768558581849192400,1.2001923828125,-0.003753662109375,-1.003387451171875,-0.0223541259765625
1768558581859220500,1.210220458984375,-0.0172882080078125,-1.001617431640625,-0.044769287109375
1768558581869249300,1.220249267578125,-0.013885498046875,-0.9994354248046875,-0.0480804443359375
1768558581879278300,1.2302783203125,0.0026397705078125,-1.0003509521484375,-0.0345306396484375
1768558581889306600,1.240306640625,-0.005096435546875,-0.999603271484375,-0.03515625
1768558581899335400,1.25033544921875,-0.0044097900390625,-1.000823974609375,-0.0304107666015625
1768558581909364500,1.260364501953125,-0.0051116943359375,-1.0010223388671875,-0.02984619140625
1768558581919392300,1.270392333984375,-0.007598876953125,-1.00042724609375,-0.0376129150390625
1768558581929421300,1.28042138671875,-0.0105133056640625,-0.999237060546875,-0.03765869140625
1768558581939450600,1.29045068359375,-0.0161285400390625,-1.0014801025390625,-0.03466796875
1768558581949478400,1.300478515625,-0.0055999755859375,-1.0019378662109375,-0.0354156494140625
1768558581959507500,1.310507568359375,-0.0081787109375,-0.9985809326171875,-0.0443878173828125
1768558581969536500,1.32053662109375,-0.0156707763671875,-0.99609375,-0.0494537353515625
1768558581979565300,1.3305654296875,-0.0139007568359375,-0.997711181640625,-0.0484771728515625
1768558581989593600,1.340593505859375,-0.024383544921875,-0.998382568359375,-0.0550384521484375
1768558581999622400,1.350622314453125,-0.019317626953125,-0.9983367919921875,-0.0564117431640625
1768558582009651500,1.3606513671875,-0.01055908203125,-1.000823974609375,-0.051910400390625
1768558582019679500,1.370679443359375,-0.003509521484375,-0.9995269775390625,-0.0448455810546875
1768558582029708300,1.380708251953125,-0.003173828125,-1.001068115234375,-0.029815673828125
1768558582039737300,1.3907373046875,-0.0066986083984375,-1.0009918212890625,-0.02972412109375
1768558582049765400,1.400765380859375,-0.0120849609375,-1.000762939453125,-0.038604736328125
1768558582059794400,1.41079443359375,-0.008819580078125,-1.0013580322265625,-0.03497314453125
1768558582069823500,1.420823486328125,-0.0115814208984375,-1.00128173828125,-0.032440185546875
1768558582079851300,1.430851318359375,-0.0139007568359375,-1,-0.0378570556640625
1768558582089880600,1.440880615234375,-0.0065765380859375,-1.0003662109375,-0.0312652587890625
1768558582099909600,1.45090966796875,-0.0096588134765625,-1.00091552734375,-0.0282745361328125
1768558582109937400,1.4609375,-0.010101318359375,-1.0019989013671875,-0.028289794921875
1768558582119966500,1.470966552734375,-0.016265869140625,-1.0009765625,-0.042327880859375
1768558582129995300,1.480995361328125,-0.0128631591796875,-0.99774169921875,-0.0538177490234375
1768558582140023600,1.4910234375,-0.007171630859375,-1.001373291015625,-0.0406951904296875
1768558582150052600,1.501052490234375,-0.00830078125,-1.001922607421875,-0.0364990234375
1768558582160081400,1.511081298828125,-0.017974853515625,-1.0006866455078125,-0.03802490234375
1768558582170110500,1.5211103515625,-0.011871337890625,-1.0015411376953125,-0.0341644287109375
1768558582180137700,1.5311376953125,-0.00518798828125,-0.9998626708984375,-0.0433349609375
1768558582190166800,1.541166748046875,-0.005950927734375,-0.9990692138671875,-0.0423126220703125
1768558582200195600,1.551195556640625,-0.0067291259765625,-1.0007781982421875,-0.0368499755859375
1768558582210223600,1.5612236328125,-0.0145111083984375,-0.9993743896484375,-0.0422210693359375
1768558582220252700,1.571252685546875,-0.01019287109375,-0.99932861328125,-0.0366973876953125
1768558582230281500,1.581281494140625,-0.0079803466796875,-1.000152587890625,-0.030364990234375
1768558582240309800,1.591309814453125,-0.0114288330078125,-1.0006561279296875,-0.0379791259765625
1768558582250338600,1.601338623046875,-0.01165771484375,-1.0011749267578125,-0.0397491455078125
1768558582260367600,1.61136767578125,-0.00714111328125,-1.0016021728515625,-0.032806396484375
1768558582270395600,1.621395751953125,-0.013275146484375,-0.9993896484375,-0.0403289794921875
1768558582280424700,1.6314248046875,-0.0138702392578125,-0.999969482421875,-0.0416717529296875
1768558582290453800,1.641453857421875,-0.0124969482421875,-0.999725341796875,-0.0377349853515625
1768558582300481500,1.6514814453125,-0.0109405517578125,-0.9995269775390625,-0.0403594970703125
1768558582310510600,1.661510498046875,-0.0096893310546875,-0.9997711181640625,-0.041473388671875
1768558582320539600,1.67153955078125,-0.0033111572265625,-1.0009765625,-0.0388031005859375
1768558582330568400,1.681568359375,-0.009552001953125,-1.000396728515625,-0.0424957275390625
1768558582340596700,1.6915966796875,-0.0081634521484375,-0.99951171875,-0.04571533203125
1768558582350625800,1.701625732421875,-0.00689697265625,-1.0005035400390625,-0.0407562255859375
1768558582360654600,1.711654541015625,-0.0132904052734375,-1.0005950927734375,-0.0381011962890625
1768558582370682600,1.7216826171875,-0.0113372802734375,-1.0009307861328125,-0.0405426025390625
1768558582380711700,1.731711669921875,-0.0108642578125,-0.99945068359375,-0.0366973876953125
1768558582390740700,1.74174072265625,-0.0095062255859375,-1.0010223388671875,-0.0309600830078125
1768558582400768800,1.751768798828125,-0.0127410888671875,-1.0015716552734375,-0.0340118408203125
1768558582410797600,1.761797607421875,-0.0133209228515625,-1.0009765625,-0.0357513427734375
1768558582420826600,1.77182666015625,-0.0084686279296875,-1.0017547607421875,-0.0328826904296875
1768558582430854700,1.781854736328125,-0.009613037109375,-0.9997711181640625,-0.0357208251953125
1768558582440883700,1.7918837890625,-0.010162353515625,-0.999786376953125,-0.039398193359375
1768558582450912800,1.801912841796875,-0.0091094970703125,-1.0000457763671875,-0.03973388671875
1768558582460940500,1.8119404296875,-0.0103607177734375,-1.0005950927734375,-0.037139892578125
1768558582470969600,1.821969482421875,-0.010833740234375,-1.0009307861328125,-0.0347747802734375
1768558582480998700,1.83199853515625,-0.010467529296875,-0.9990692138671875,-0.037994384765625
1768558582491026700,1.842026611328125,-0.0103912353515625,-0.99951171875,-0.041046142578125
1768558582501055700,1.8520556640625,-0.013092041015625,-1.000152587890625,-0.0461883544921875
1768558582511084500,1.86208447265625,-0.006866455078125,-0.9996185302734375,-0.0403900146484375
1768558582521113600,1.872113525390625,-0.0094146728515625,-0.9999542236328125,-0.0373077392578125
1768558582531141600,1.8821416015625,-0.00836181640625,-1.0013427734375,-0.037109375
1768558582541170700,1.892170654296875,-0.0113372802734375,-1.0017547607421875,-0.037841796875
1768558582551199700,1.90219970703125,-0.012939453125,-1.0004119873046875,-0.038818359375
1768558582561227500,1.9122275390625,-0.0107574462890625,-1.001190185546875,-0.036041259765625
1768558582571256600,1.922256591796875,-0.011810302734375,-1.0010528564453125,-0.040130615234375
1768558582581285600,1.93228564453125,-0.0075836181640625,-1.000030517578125,-0.037109375
1768558582591313700,1.942313720703125,-0.007598876953125,-0.9986572265625,-0.03607177734375
1768558582601342700,1.9523427734375,-0.0126800537109375,-0.999542236328125,-0.0410919189453125
1768558582611371800,1.962371826171875,-0.0085296630859375,-1.0004730224609375,-0.0358734130859375
1768558582621399600,1.972399658203125,-0.0139312744140625,-0.9998779296875,-0.040618896484375
1768558582631428600,1.9824287109375,-0.0122528076171875,-0.9993438720703125,-0.0440521240234375
1768558582641457700,1.992457763671875,-0.0117645263671875,-1.001434326171875,-0.0337371826171875
1768558582651486700,2.00248681640625,-0.011566162109375,-1.0003662109375,-0.04443359375
1768558582661514800,2.0125146484375,-0.0083465576171875,-0.999755859375,-0.037261962890625
1768558582671543600,2.02254345703125,-0.0072784423828125,-1.0004119873046875,-0.0363922119140625
1768558582681572600,2.032572509765625,-0.0115814208984375,-1.00048828125,-0.03802490234375
1768558582691600600,2.0426005859375,-0.009002685546875,-1.0015869140625,-0.0363006591796875
1768558582701629700,2.052629638671875,-0.0128631591796875,-0.9993438720703125,-0.03863525390625
1768558582711658800,2.06265869140625,-0.0138092041015625,-1.0006866455078125,-0.03973388671875
1768558582721686500,2.0726865234375,-0.010986328125,-1.001861572265625,-0.037567138671875
1768558582731715600,2.082715576171875,-0.006500244140625,-1.000579833984375,-0.0364227294921875
1768558582741744600,2.09274462890625,-0.0100860595703125,-1.0003814697265625,-0.036468505859375
1768558582751772700,2.102772705078125,-0.0106964111328125,-0.9990692138671875,-0.033538818359375
1768558582761801700,2.1128017578125,-0.0130157470703125,-0.9994659423828125,-0.039154052734375
1768558582771830500,2.12283056640625,-0.01416015625,-0.9987945556640625,-0.047607421875
1768558582781858600,2.132858642578125,-0.01080322265625,-1.0000762939453125,-0.0400848388671875
1768558582791888000,2.142887939453125,-0.011962890625,-1.001129150390625,-0.03790283203125
1768558582801916700,2.152916748046875,-0.0052642822265625,-1.0000457763671875,-0.0365753173828125
1768558582811945700,2.16294580078125,-0.0044097900390625,-1.001129150390625,-0.031585693359375
1768558582821973500,2.172973388671875,-0.0092315673828125,-0.9982452392578125,-0.049224853515625
1768558582832002600,2.18300244140625,-0.0051727294921875,-1,-0.0469512939453125
1768558582842031600,2.193031494140625,-0.0066375732421875,-0.999725341796875,-0.0467681884765625
1768558582852059600,2.2030595703125,0.000457763671875,-0.9996185302734375,-0.047332763671875
1768558582862088700,2.213088623046875,0.0031585693359375,-1.0008544921875,-0.0305633544921875
1768558582872117800,2.22311767578125,0.01214599609375,-0.9981842041015625,-0.02117919921875
1768558582882145500,2.2331455078125,0.0275421142578125,-1.0084686279296875,-0.0086212158203125
1768558582892174800,2.2431748046875,0.0147247314453125,-1.0055389404296875,0.003204345703125
1768558582902203600,2.25320361328125,-0.0545501708984375,-0.9970245361328125,-0.04345703125
1768558582912232700,2.263232666015625,-0.0866851806640625,-0.996917724609375,-0.086761474609375
1768558582922260700,2.2732607421875,-0.017333984375,-1.007598876953125,-0.0336151123046875
1768558582932289500,2.28328955078125,0.01953125,-0.99945068359375,-0.0126495361328125
1768558582942318600,2.293318603515625,-0.008819580078125,-0.9960784912109375,-0.0671234130859375
1768558582952346600,2.3033466796875,0.0020294189453125,-0.99798583984375,-0.0385284423828125
1768558582962375700,2.313375732421875,0.00244140625,-1.001068115234375,-0.013214111328125
1768558582972404700,2.32340478515625,-0.0068359375,-0.99993896484375,-0.0351409912109375
1768558582982432500,2.3334326171875,-0.0064697265625,-0.999969482421875,-0.043548583984375
1768558582992461600,2.343461669921875,-0.006378173828125,-0.9991607666015625,-0.0472564697265625
1768558583002491000,2.353490966796875,-0.0055999755859375,-0.9983062744140625,-0.050811767578125
1768558583012518700,2.3635185546875,-0.0088043212890625,-1.000640869140625,-0.040618896484375
1768558583022547700,2.373547607421875,-0.0252685546875,-1.0029296875,-0.0360870361328125
1768558583032576500,2.383576416015625,-0.012542724609375,-1.002105712890625,-0.0305023193359375
1768558583042605600,2.39360546875,-0.0071868896484375,-1.0018157958984375,-0.0225982666015625
1768558583052633900,2.4036337890625,-0.0148162841796875,-1.0012054443359375,-0.0283355712890625
1768558583062662700,2.41366259765625,-0.013519287109375,-0.998992919921875,-0.0406494140625
1768558583072691700,2.423691650390625,-0.01263427734375,-0.9983367919921875,-0.041473388671875
1768558583082719500,2.433719482421875,-0.0113525390625,-1.0007476806640625,-0.0395050048828125
1768558583092748500,2.44374853515625,-0.001312255859375,-1.000701904296875,-0.041534423828125
1768558583102777600,2.453777587890625,-0.0145416259765625,-0.998870849609375,-0.0520477294921875
1768558583112805600,2.4638056640625,-0.01947021484375,-0.9992523193359375,-0.05511474609375
1768558583122834700,2.473834716796875,-0.004241943359375,-1.0009613037109375,-0.032623291015625
1768558583132863700,2.48386376953125,-0.00750732421875,-1.000701904296875,-0.029449462890625
1768558583142892500,2.493892578125,-0.0153656005859375,-0.9983367919921875,-0.05389404296875
1768558583152920800,2.5039208984375,-0.00933837890625,-1.000030517578125,-0.045623779296875
1768558583162949600,2.51394970703125,-0.0037078857421875,-1.001708984375,-0.035736083984375
1768558583172978700,2.523978759765625,-0.0069580078125,-0.9994049072265625,-0.0326690673828125
1768558583183006500,2.53400634765625,-0.006378173828125,-1.000152587890625,-0.0294342041015625
1768558583193035500,2.544035400390625,-0.0122222900390625,-1.0020294189453125,-0.0304107666015625
1768558583203064300,2.554064208984375,-0.0166015625,-1.0009307861328125,-0.0377655029296875
1768558583213092600,2.564092529296875,-0.0095062255859375,-1.0005035400390625,-0.0421905517578125
1768558583223121400,2.574121337890625,-0.006011962890625,-0.998260498046875,-0.04931640625
1768558583233150500,2.584150390625,-0.015228271484375,-0.997772216796875,-0.0554046630859375
1768558583243179500,2.594179443359375,-0.0169677734375,-0.999267578125,-0.0512237548828125
1768558583253207600,2.60420751953125,0.021942138671875,-1.0039825439453125,-0.009613037109375
1768558583263236600,2.614236572265625,-0.0430450439453125,-1.00189208984375,-0.04071044921875
1768558583273265700,2.624265625,-0.0012359619140625,-0.99859619140625,-0.0504150390625
1768558583283293400,2.63429345703125,0.00445556640625,-1.001983642578125,-0.013427734375
1768558583293322500,2.644322509765625,-0.0163726806640625,-1.0034637451171875,-0.02996826171875
1768558583303351600,2.6543515625,-0.0118408203125,-0.999114990234375,-0.044036865234375
1768558583313379600,2.664379638671875,-0.0079193115234375,-1.001007080078125,-0.0286712646484375
1768558583323408600,2.67440869140625,-0.0054931640625,-1.001617431640625,-0.031341552734375
1768558583333437400,2.6844375,-0.0050048828125,-0.9980621337890625,-0.041656494140625
1768558583343466500,2.694466552734375,-0.008331298828125,-1.00042724609375,-0.0461273193359375
1768558583353494500,2.70449462890625,-0.0121917724609375,-0.99932861328125,-0.046142578125
1768558583363523600,2.714523681640625,-0.0081024169921875,-0.9953765869140625,-0.0639801025390625
1768558583373552600,2.724552734375,-0.005462646484375,-0.999237060546875,-0.0557708740234375
1768558583383580400,2.734580322265625,-0.00604248046875,-1.0003662109375,-0.04290771484375
1768558583393609500,2.744609375,-0.0075836181640625,-1.000732421875,-0.0424041748046875
1768558583403638500,2.754638427734375,-0.0131683349609375,-1.002410888671875,-0.0283355712890625
1768558583413666600,2.76466650390625,-0.011566162109375,-1.0016632080078125,-0.0255126953125
1768558583423695600,2.774695556640625,-0.0152587890625,-1.00396728515625,-0.01910400390625
1768558583433724400,2.784724365234375,-0.019378662109375,-1.001953125,-0.02581787109375
1768558583443753500,2.79475341796875,-0.007354736328125,-1.0001068115234375,-0.04095458984375
1768558583453781500,2.804781494140625,-0.005828857421875,-0.998016357421875,-0.0406646728515625
1768558583463810600,2.814810546875,-0.0044097900390625,-0.9987030029296875,-0.038726806640625
1768558583473839600,2.824839599609375,-0.007080078125,-0.9989013671875,-0.037628173828125
1768558583483867400,2.834867431640625,-0.0086822509765625,-1.00054931640625,-0.0372467041015625
1768558583493896400,2.844896484375,-0.0089263916015625,-1.00140380859375,-0.0345306396484375
1768558583503925500,2.854925537109375,-0.0113372802734375,-1.000274658203125,-0.03955078125
1768558583513953500,2.86495361328125,-0.0097808837890625,-1.0009002685546875,-0.0429840087890625
1768558583523982600,2.874982666015625,-0.00830078125,-1.000274658203125,-0.037689208984375
1768558583534011600,2.88501171875,-0.00836181640625,-1.000518798828125,-0.03887939453125
1768558583544040400,2.89504052734375,-0.0088043212890625,-0.999420166015625,-0.0416412353515625
1768558583554068500,2.905068359375,-0.015716552734375,-1.000885009765625,-0.039276123046875
1768558583564097300,2.91509716796875,-0.008026123046875,-1.0000762939453125,-0.0369720458984375
1768558583574126600,2.925126708984375,-0.000823974609375,-0.9991455078125,-0.0289306640625
1768558583584154600,2.935154541015625,-0.0107421875,-1.0016021728515625,-0.0338287353515625
1768558583594183400,2.945183349609375,-0.0145416259765625,-1.0026092529296875,-0.0437164306640625
1768558583604212500,2.95521240234375,-0.0161895751953125,-1.0009002685546875,-0.0370025634765625
1768558583614241500,2.965241455078125,-0.0164337158203125,-1.0013427734375,-0.03900146484375
1768558583624269600,2.97526953125,-0.01104736328125,-1.00262451171875,-0.037078857421875
1768558583634298600,2.985298583984375,-0.0016632080078125,-0.9872283935546875,-0.0511932373046875
1768558583644327700,2.99532763671875,-0.00341796875,-1.00146484375,-0.168609619140625
1768558583654355500,3.00535546875,-0.00860595703125,-1.00653076171875,0.0620574951171875
1768558583664384500,3.015384521484375,0.0172271728515625,-1.006988525390625,0.0115203857421875
1768558583674413600,3.02541357421875,-0.0313262939453125,-1.001800537109375,-0.054351806640625
1768558583684441600,3.035441650390625,-0.0244293212890625,-1.003875732421875,-0.02862548828125
1768558583694470400,3.045470458984375,-0.0121612548828125,-1.0045928955078125,-0.0092315673828125
1768558583704499500,3.05549951171875,-0.0087890625,-1.0010833740234375,-0.03350830078125
1768558583714528500,3.065528564453125,-0.0022125244140625,-1.0003509521484375,-0.0479888916015625
1768558583724556500,3.075556640625,-0.001068115234375,-0.9998931884765625,-0.0244903564453125
1768558583734585600,3.085585693359375,0.00048828125,-0.998870849609375,-0.0063323974609375
1768558583744614700,3.09561474609375,0.0660400390625,-1.020477294921875,-0.00128173828125
1768558583754642400,3.105642333984375,0.031890869140625,-0.9832305908203125,-0.1026763916015625
1768558583764671500,3.11567138671875,-0.084747314453125,-0.99237060546875,-0.0796356201171875
1768558583774700300,3.1257001953125,-0.0197601318359375,-1.0013580322265625,-0.0269775390625
1768558583784729600,3.1357294921875,-0.046051025390625,-0.9990997314453125,-0.0590362548828125
1768558583794757600,3.145757568359375,-0.0504150390625,-1.0043792724609375,-0.0358123779296875
1768558583804786400,3.155786376953125,-0.012298583984375,-1.0025634765625,-0.0252227783203125
1768558583814815500,3.1658154296875,0.006591796875,-1.0034332275390625,-0.02423095703125
1768558583824843500,3.175843505859375,-0.0249481201171875,-0.9999542236328125,-0.02996826171875
1768558583834872600,3.18587255859375,-0.0091552734375,-1.00311279296875,-0.052337646484375
1768558583844901600,3.195901611328125,0.0037689208984375,-0.9981231689453125,-0.03717041015625
1768558583854929400,3.205929443359375,-0.017333984375,-1.0023651123046875,-0.0319671630859375
1768558583864958500,3.21595849609375,0.015838623046875,-0.9968414306640625,-0.0055694580078125
1768558583874987500,3.225987548828125,-0.00970458984375,-1.00152587890625,-0.076416015625
1768558583885016300,3.236016357421875,-0.0196075439453125,-1.0032196044921875,-0.0386962890625
1768558583895044600,3.246044677734375,0.018280029296875,-0.9956207275390625,-0.02789306640625
1768558583905073400,3.256073486328125,0.039947509765625,-0.9954071044921875,-0.059783935546875
1768558583915102500,3.2661025390625,0.0212249755859375,-1.005767822265625,-0.0460205078125
1768558583925130500,3.276130615234375,0.033538818359375,-1.0009918212890625,-0.04376220703125
1768558583935159600,3.28615966796875,0.01123046875,-0.9968414306640625,-0.057403564453125
1768558583945188600,3.296188720703125,-0.010009765625,-0.9990386962890625,-0.0345306396484375
1768558583955217700,3.3062177734375,-0.043609619140625,-1.00469970703125,0.0100555419921875
1768558583965245400,3.316245361328125,-0.0579833984375,-0.9952392578125,0.0193328857421875
1768558583975274500,3.3262744140625,-0.0722808837890625,-0.9998931884765625,-0.0233001708984375
1768558583985303600,3.336303466796875,-0.0646209716796875,-1.000579833984375,-0.0334320068359375
1768558583995331600,3.34633154296875,-0.0326385498046875,-0.99920654296875,-0.0211029052734375
1768558584005360600,3.356360595703125,-0.0170135498046875,-1.003936767578125,-0.03045654296875
1768558584015389400,3.366389404296875,0.0095062255859375,-1.0002288818359375,-0.0402374267578125
1768558584025418500,3.37641845703125,0.0335540771484375,-1.00152587890625,-0.0418548583984375
1768558584035446500,3.386446533203125,0.0335693359375,-0.9978790283203125,-0.058624267578125
1768558584045475600,3.3964755859375,0.025848388671875,-1.001556396484375,-0.0626068115234375
1768558584055504600,3.406504638671875,0.0142669677734375,-0.999481201171875,-0.0439300537109375
1768558584065532400,3.416532470703125,0.003082275390625,-0.9975738525390625,-0.0259246826171875
1768558584075561500,3.4265615234375,-0.008514404296875,-1.0008697509765625,-0.033111572265625
1768558584085590500,3.436590576171875,-0.0327606201171875,-0.9996795654296875,-0.03179931640625
1768558584095619300,3.446619384765625,-0.041778564453125,-1.001251220703125,-0.0195465087890625
1768558584105647600,3.456647705078125,-0.0360870361328125,-1.00030517578125,-0.0223846435546875
1768558584115676400,3.466676513671875,-0.016143798828125,-1.0025634765625,-0.0322113037109375
1768558584125705500,3.47670556640625,-0.0008087158203125,-0.9982452392578125,-0.0286102294921875
1768558584135733500,3.4867333984375,-0.0012054443359375,-1.0034027099609375,-0.043701171875
1768558584145762600,3.496762451171875,0.017120361328125,-0.9972076416015625,-0.04534912109375
1768558584155791600,3.50679150390625,0.0136566162109375,-1.0052032470703125,-0.039764404296875
1768558584165820700,3.516820556640625,0.0035552978515625,-0.99609375,-0.0274810791015625
1768558584175848400,3.526848388671875,-0.0204010009765625,-1.0009002685546875,-0.0266876220703125
1768558584185877800,3.536877685546875,-0.0440826416015625,-1.003265380859375,-0.0283966064453125
1768558584195906800,3.54690673828125,-0.0291290283203125,-0.9975128173828125,-0.01873779296875
1768558584205935000,3.55693505859375,-0.0196685791015625,-1.0017852783203125,-0.0345916748046875
1768558584215964000,3.5669638671875,-0.005889892578125,-1.0011749267578125,-0.0306243896484375
1768558584225993000,3.576992919921875,0.0114898681640625,-0.9996337890625,-0.024078369140625
1768558584236022000,3.58702197265625,0.0153656005859375,-1.002197265625,-0.045013427734375
1768558584246049800,3.5970498046875,0.0156402587890625,-1.000732421875,-0.045745849609375
1768558584256078800,3.607078857421875,0.0126953125,-1.0001068115234375,-0.040863037109375
1768558584266108000,3.61710791015625,0.0009918212890625,-1.0000152587890625,-0.042694091796875
1768558584276136000,3.627135986328125,-0.006591796875,-1.0006103515625,-0.03802490234375
1768558584286165000,3.6371650390625,-0.01129150390625,-0.99981689453125,-0.033721923828125
1768558584296193800,3.64719384765625,-0.0136566162109375,-1.0001678466796875,-0.03509521484375
1768558584306222800,3.657222900390625,-0.0107879638671875,-1.00103759765625,-0.0363311767578125
1768558584316251000,3.6672509765625,-0.00665283203125,-1.0008697509765625,-0.0452728271484375
1768558584326280000,3.677280029296875,-0.003814697265625,-1.0007781982421875,-0.042388916015625
1768558584336309000,3.68730908203125,-0.00494384765625,-1.00067138671875,-0.0272216796875
1768558584346336800,3.697336669921875,-0.015045166015625,-1.0008544921875,-0.0214691162109375
1768558584356365800,3.70736572265625,-0.0227813720703125,-0.9991302490234375,-0.0208282470703125
1768558584366395000,3.717394775390625,-0.0251312255859375,-0.999603271484375,-0.0285186767578125
1768558584376424000,3.727423828125,-0.0263671875,-1.0010528564453125,-0.034027099609375
1768558584386452000,3.737451904296875,-0.0150146484375,-1.00048828125,-0.0264892578125
1768558584396480800,3.747480712890625,-0.0045623779296875,-1.0009002685546875,-0.03515625
1768558584406509800,3.757509765625,0.0029449462890625,-1.000030517578125,-0.043487548828125
1768558584416539000,3.767538818359375,0.0076751708984375,-1.0002593994140625,-0.0207977294921875
1768558584426567000,3.77756689453125,0.0143280029296875,-1.0021514892578125,-0.0157470703125
1768558584436596000,3.787595947265625,0.0146942138671875,-1.0039520263671875,-0.043975830078125
1768558584446625000,3.797625,0.0316314697265625,-0.998748779296875,-0.0460968017578125
1768558584456652800,3.80765283203125,0.0426788330078125,-1.004852294921875,0.026947021484375
1768558584466681900,3.817681884765625,0.014434814453125,-1.0052032470703125,0.0324554443359375
1768558584476711000,3.8277109375,0.0020294189453125,-0.9955596923828125,0.0045166015625
1768558584486740000,3.837739990234375,-0.0023040771484375,-1.010040283203125,0.0371246337890625
1768558584496768000,3.84776806640625,0.0065155029296875,-1.0017852783203125,0.05572509765625
1768558584506796800,3.857796875,0.0112457275390625,-1.0001678466796875,0.056732177734375
1768558584516825900,3.867825927734375,-1.6878814697265625,-0.70361328125,-1.5048828125
1768558584526855000,3.87785498046875,0.4924163818359375,-1.321075439453125,-0.53204345703125
1768558584536883000,3.887883056640625,0.456817626953125,-0.9873199462890625,0.1481475830078125
1768558584546912000,3.897912109375,0.2506103515625,-0.89752197265625,0.0089874267578125
1768558584556940800,3.90794091796875,0.320281982421875,-1.0160675048828125,0.094879150390625
1768558584566968800,3.91796875,0.2873992919921875,-0.9098663330078125,0.083099365234375
1768558584576998000,3.927997802734375,0.210296630859375,-0.9698486328125,0.029327392578125
1768558584587027000,3.93802685546875,-0.1409759521484375,-1.353973388671875,0.4993896484375
1768558584597056000,3.948055908203125,-0.116851806640625,-0.779571533203125,0.282806396484375
1768558584607083800,3.958083740234375,-0.3885345458984375,-1.03363037109375,-0.1423187255859375
1768558584617112800,3.96811279296875,-0.370452880859375,-0.98968505859375,-0.05755615234375
1768558584627142000,3.978141845703125,-0.2675018310546875,-0.975128173828125,0.0012359619140625
1768558584637170700,3.988170654296875,-0.0986480712890625,-1.0059356689453125,0.0402374267578125
1768558584647199000,3.998198974609375,0.050201416015625,-1.0096893310546875,0.000885009765625
1768558584657228000,4.00822802734375,0.1170654296875,-1.00958251953125,-0.04541015625
1768558584667256800,4.0182568359375,0.089599609375,-1.000244140625,-0.101715087890625
1768558584677284900,4.028284912109375,0.0551910400390625,-0.9918212890625,-0.097198486328125
1768558584687314000,4.03831396484375,0.001861572265625,-1.0014190673828125,-0.113861083984375
1768558584697343000,4.048343017578125,-0.048248291015625,-0.9984130859375,-0.0789642333984375
1768558584707372000,4.0583720703125,-0.041656494140625,-0.9997406005859375,0.011383056640625
1768558584717399800,4.06839990234375,-0.047943115234375,-0.999603271484375,0.0175628662109375
1768558584727428900,4.078428955078125,-0.0627288818359375,-0.9990234375,-0.035308837890625
1768558584737458000,4.0884580078125,-0.0565643310546875,-0.9984588623046875,-0.0416717529296875
1768558584747486700,4.09848681640625,-0.0317230224609375,-1.000213623046875,-0.019622802734375
1768558584757515000,4.108514892578125,-0.025115966796875,-1.0030364990234375,-0.0179595947265625
1768558584767543800,4.118543701171875,-0.041259765625,-1.0000152587890625,-0.03546142578125
1768558584777572900,4.12857275390625,-0.0353851318359375,-0.9990386962890625,-0.0535888671875
1768558584787601000,4.138600830078125,-0.0128021240234375,-0.9967498779296875,-0.0462188720703125
1768558584797630000,4.1486298828125,-0.019378662109375,-1.0041351318359375,-0.033111572265625
1768558584807659000,4.158658935546875,-0.0324249267578125,-0.998931884765625,-0.0468292236328125
1768558584817688000,4.16868798828125,-0.051727294921875,-1.0001220703125,-0.057098388671875
1768558584827715800,4.1787158203125,-0.061279296875,-0.99908447265625,-0.0442657470703125
1768558584837745000,4.188744873046875,-0.0281829833984375,-1.0007781982421875,-0.0224761962890625
1768558584847773700,4.198773681640625,0.023834228515625,-0.9991455078125,-0.030731201171875
1768558584857802800,4.208802734375,0.0325164794921875,-1.0013580322265625,-0.0545501708984375
1768558584867831000,4.2188310546875,0.0309600830078125,-0.9965972900390625,-0.0772552490234375
1768558584877859800,4.22885986328125,0.0195159912109375,-0.9993896484375,-0.0891876220703125
1768558584887889000,4.238888916015625,0.010009765625,-0.9997406005859375,-0.066680908203125
1768558584897918000,4.24891796875,-0.0004119873046875,-1.003692626953125,-0.037109375
1768558584907946000,4.258946044921875,-0.0148162841796875,-0.999298095703125,-0.00830078125
1768558584917975000,4.26897509765625,-0.0369873046875,-1.003448486328125,-0.0065155029296875
1768558584928003800,4.27900390625,-0.0474853515625,-0.99896240234375,-0.02880859375
1768558584938031900,4.289031982421875,-0.053314208984375,-0.9987030029296875,-0.0379180908203125
1768558584951821800,4.30282177734375,-0.0601043701171875,-0.9979400634765625,-0.0333709716796875
1768558584961851000,4.312850830078125,-0.0621490478515625,-0.9991607666015625,-0.0247650146484375
1768558584971880000,4.3228798828125,-0.064208984375,-0.9988250732421875,-0.027374267578125
1768558584981908000,4.332907958984375,-0.0666351318359375,-0.998046875,-0.0343017578125
1768558584991937000,4.34293701171875,-0.0663299560546875,-0.997894287109375,-0.0345611572265625
1768558585001966000,4.352966064453125,-0.0649871826171875,-0.9988250732421875,-0.027740478515625
1768558585011993900,4.362993896484375,-0.0617218017578125,-0.9985198974609375,-0.0307769775390625
1768558585022023000,4.37302294921875,-0.0590667724609375,-0.9972076416015625,-0.037078857421875
1768558585032051700,4.3830517578125,-0.054412841796875,-0.9985504150390625,-0.0332183837890625
1768558585042080800,4.393080810546875,-0.04986572265625,-0.9997406005859375,-0.0306854248046875
1768558585052109000,4.403109130859375,-0.04571533203125,-1.0011138916015625,-0.0317840576171875
1768558585062137900,4.413137939453125,-0.0399932861328125,-0.9991455078125,-0.0372161865234375
1768558585072167000,4.4231669921875,-0.0313262939453125,-1.0026092529296875,-0.036376953125
1768558585082196000,4.433196044921875,-0.008270263671875,-0.9999847412109375,-0.02728271484375
1768558585092224000,4.44322412109375,0.0117950439453125,-1.0014495849609375,-0.0376434326171875
1768558585102253000,4.453253173828125,0.0202484130859375,-1.001007080078125,-0.058441162109375
1768558585112281900,4.46328173828125,0.0195465087890625,-0.9994049072265625,-0.06231689453125
1768558585122311000,4.473310791015625,0.01544189453125,-1.001312255859375,-0.04693603515625
1768558585132339000,4.4833388671875,-0.0001068115234375,-1.000946044921875,-0.037933349609375
1768558585142367700,4.49336767578125,-0.0225372314453125,-0.999786376953125,-0.0407867431640625
1768558585152396800,4.503396728515625,-0.0383148193359375,-1.00030517578125,-0.036468505859375
1768558585162426000,4.513426025390625,-0.0453948974609375,-1.0005950927734375,-0.02886962890625
1768558585172454000,4.523453857421875,-0.04541015625,-0.9988861083984375,-0.027557373046875
1768558585182482400,4.533482421875,-0.0512847900390625,-0.9990234375,-0.0363006591796875
1768558585192511200,4.54351123046875,-0.05303955078125,-0.99835205078125,-0.036407470703125
1768558585202540300,4.553540283203125,-0.052276611328125,-0.9981842041015625,-0.0308380126953125
1768558585212568300,4.563568359375,-0.052734375,-0.9998321533203125,-0.0300750732421875
1768558585222597400,4.573597412109375,-0.051483154296875,-0.9991302490234375,-0.0350341796875
1768558585232626400,4.58362646484375,-0.0505218505859375,-0.9998931884765625,-0.03521728515625
1768558585242655500,4.593655517578125,-0.04779052734375,-0.9999542236328125,-0.0322723388671875
1768558585252683500,4.60368359375,-0.0455474853515625,-0.999359130859375,-0.0339813232421875
1768558585262712600,4.613712646484375,-0.04248046875,-0.9994049072265625,-0.0374603271484375
1768558585272741400,4.623741455078125,-0.0348968505859375,-1.000335693359375,-0.0346221923828125
1768558585282770400,4.6337705078125,-0.01959228515625,-0.99981689453125,-0.0322418212890625
1768558585292798200,4.643798095703125,-0.01025390625,-1.000823974609375,-0.04034423828125
1768558585302827300,4.6538271484375,-0.0028076171875,-1.000823974609375,-0.046783447265625
1768558585312856300,4.663856201171875,0.00067138671875,-1.0003662109375,-0.046295166015625
1768558585322885600,4.6738857421875,-0.0022125244140625,-1.0011444091796875,-0.0438385009765625
1768558585332913400,4.683913330078125,-0.0102996826171875,-0.999908447265625,-0.041290283203125
1768558585342942500,4.6939423828125,-0.024200439453125,-1.0014190673828125,-0.0399627685546875
1768558585352971300,4.70397119140625,-0.033172607421875,-0.9982147216796875,-0.03265380859375
1768558585363000300,4.714000244140625,-0.0412445068359375,-0.9990692138671875,-0.03533935546875
1768558585373028400,4.7240283203125,-0.0438995361328125,-0.9990081787109375,-0.03375244140625
1768558585383057400,4.734057373046875,-0.0467681884765625,-0.9989013671875,-0.032867431640625
1768558585393086500,4.74408642578125,-0.0474853515625,-0.99884033203125,-0.0340576171875
1768558585403115500,4.754115478515625,-0.0465087890625,-0.9991302490234375,-0.0345001220703125
1768558585413143300,4.764143310546875,-0.0474090576171875,-0.999755859375,-0.0327606201171875
1768558585423172400,4.77417236328125,-0.0446929931640625,-0.9992218017578125,-0.033477783203125
1768558585433201400,4.784201416015625,-0.0424041748046875,-0.9999237060546875,-0.0348358154296875
1768558585443230500,4.79423046875,-0.0387420654296875,-1.0007171630859375,-0.0343780517578125
1768558585453258500,4.804258544921875,-0.030120849609375,-1.0005950927734375,-0.033660888671875
1768558585463287300,4.814287353515625,-0.09674072265625,-0.9818572998046875,0.0141143798828125
1768558585473316400,4.82431640625,-0.136138916015625,-1.0122528076171875,0.0249481201171875
1768558585483345400,4.834345458984375,-0.0183868408203125,-1.0111541748046875,-0.0086822509765625
1768558585493373400,4.84437353515625,0.1274261474609375,-1.02593994140625,-0.019744873046875
1768558585503402500,4.854402587890625,0.25091552734375,-0.954864501953125,-0.107452392578125
1768558585513431300,4.864431396484375,-0.0459747314453125,-1.000885009765625,-0.1985931396484375
1768558585523460400,4.87446044921875,-0.09075927734375,-1.0064697265625,-0.090179443359375
1768558585533488600,4.884488525390625,-0.003875732421875,-0.99822998046875,0.01397705078125
1768558585543517400,4.894517333984375,-0.04022216796875,-1.008270263671875,0.015960693359375
1768558585553546500,4.90454638671875,-0.0782012939453125,-0.9967498779296875,-0.0240325927734375
1768558585563575600,4.914575439453125,-0.05963134765625,-0.998260498046875,-0.058502197265625
1768558585573603300,4.924603271484375,-0.052825927734375,-0.99664306640625,-0.069244384765625
1768558585583632400,4.93463232421875,-0.055816650390625,-0.9998321533203125,-0.05810546875
1768558585593661200,4.9446611328125,-0.02880859375,-1.000396728515625,-0.041229248046875
1768558585603690500,4.9546904296875,0.0643768310546875,-0.992950439453125,-0.0354766845703125
1768558585613718500,4.964718505859375,0.027923583984375,-1.0065765380859375,-0.057037353515625
1768558585623747300,4.974747314453125,0.0125579833984375,-0.99407958984375,-0.07159423828125
1768558585633776400,4.9847763671875,0.0166778564453125,-1.0012054443359375,-0.0668792724609375
1768558585643805400,4.994805419921875,0.0144805908203125,-1.0006256103515625,-0.0440673828125
1768558585653834200,5.004834228515625,-0.0024566650390625,-1.0031280517578125,-0.0161590576171875
1768558585663862500,5.014862548828125,-0.0310211181640625,-1.0032958984375,0.00238037109375
1768558585673891300,5.024891357421875,-0.04736328125,-1.0009307861328125,-0.0147857666015625
1768558585683920400,5.03492041015625,-0.0572357177734375,-0.99859619140625,-0.0426788330078125
1768558585693949400,5.044949462890625,-0.065338134765625,-0.9974822998046875,-0.046783447265625
1768558585703977500,5.0549775390625,-0.06732177734375,-0.99761962890625,-0.0305328369140625
1768558585714006500,5.065006591796875,-0.069091796875,-0.9980926513671875,-0.0181732177734375
1768558585724035600,5.07503564453125,-0.0720062255859375,-0.9981231689453125,-0.02484130859375
1768558585734064400,5.085064453125,-0.07470703125,-0.99688720703125,-0.037353515625
1768558585744092400,5.095092529296875,-0.0748443603515625,-0.9973602294921875,-0.035675048828125
1768558585754121200,5.105121337890625,-0.072601318359375,-0.9960784912109375,-0.0249786376953125
1768558585764150300,5.115150390625,-0.071807861328125,-0.997772216796875,-0.028656005859375
1768558585774179600,5.1251796875,-0.0698699951171875,-0.9977874755859375,-0.0361175537109375
1768558585784207400,5.135207275390625,-0.064117431640625,-0.9990234375,-0.03228759765625
1768558585794236400,5.145236328125,-0.057098388671875,-0.9996795654296875,-0.030120849609375
1768558585804265500,5.155265380859375,-0.05145263671875,-1.000732421875,-0.0329132080078125
1768558585814294300,5.165294189453125,-0.0460052490234375,-0.9984588623046875,-0.0352630615234375
1768558585824322600,5.175322509765625,-0.0391845703125,-0.9998321533203125,-0.0374755859375
1768558585834351400,5.185351318359375,-0.032745361328125,-1.0016021728515625,-0.033355712890625
1768558585844380400,5.19538037109375,-0.0240631103515625,-0.9981842041015625,-0.0189361572265625
1768558585854409500,5.205409423828125,-0.0299224853515625,-1.0064544677734375,-0.0218505859375
1768558585864438300,5.215438232421875,-0.02337646484375,-0.9958648681640625,-0.041656494140625
1768558585874466300,5.22546630859375,-0.032745361328125,-0.995819091796875,-0.056182861328125
1768558585884495600,5.23549560546875,-0.018402099609375,-1.0023651123046875,-0.1001129150390625
1768558585894524400,5.2455244140625,0.05987548828125,-1.0100555419921875,-0.0522308349609375
1768558585904553500,5.255553466796875,0.0618896484375,-0.99176025390625,-0.005035400390625
1768558585914581200,5.265581298828125,0.0473785400390625,-1.0040283203125,0.003509521484375
1768558585924610300,5.2756103515625,-0.0883026123046875,-1.0068206787109375,-0.019866943359375
1768558585934639400,5.285639404296875,-0.123992919921875,-1.0012359619140625,-0.03936767578125
1768558585944668400,5.29566845703125,0.013275146484375,-1.004150390625,-0.0368194580078125
1768558585954696400,5.305696533203125,0.080230712890625,-0.9874114990234375,-0.0705108642578125
1768558585964725500,5.3157255859375,-0.01953125,-0.99285888671875,-0.12237548828125
1768558585974754300,5.32575439453125,-0.0564117431640625,-0.99908447265625,-0.07794189453125
1768558585984783400,5.335783447265625,-0.0067596435546875,-1.0011444091796875,-0.0073089599609375
1768558585994812400,5.3458125,0.002410888671875,-1.0026397705078125,-0.0024566650390625
1768558586004840400,5.35584033203125,-0.01531982421875,-1.0034332275390625,-0.0306854248046875
1768558586014869500,5.365869384765625,-0.011566162109375,-1.0056304931640625,-0.0370941162109375
1768558586024898300,5.375898193359375,0.022308349609375,-1.0006256103515625,-0.0388031005859375
1768558586034927400,5.38592724609375,0.00732421875,-1.001007080078125,-0.0440216064453125
1768558586044955400,5.395955322265625,0.004119873046875,-0.9988250732421875,-0.03662109375
1768558586054984400,5.405984375,0.0149688720703125,-1.0028839111328125,-0.0370025634765625
1768558586065013500,5.416013427734375,0.0482177734375,-1.0017242431640625,-0.0400848388671875
1768558586075042600,5.42604248046875,0.0654144287109375,-1.003692626953125,-0.04315185546875
1768558586085071400,5.4360712890625,0.05657958984375,-1.00299072265625,-0.043426513671875
1768558586095099400,5.446099365234375,0.02166748046875,-1.000579833984375,-0.03045654296875
1768558586105128200,5.456128173828125,0.0139617919921875,-1.004486083984375,-0.014923095703125
1768558586115157200,5.4661572265625,0.0447235107421875,-0.9999237060546875,-0.0250244140625
1768558586125186600,5.4761865234375,0.0498046875,-1.003173828125,-0.0569915771484375
1768558586135214300,5.48621435546875,0.041534423828125,-1.000457763671875,-0.060821533203125
1768558586145243400,5.496243408203125,0.0399932861328125,-1.0047607421875,-0.0556793212890625
1768558586155272400,5.5062724609375,0.0687713623046875,-0.9998779296875,-0.0519256591796875
1768558586165301200,5.51630126953125,0.085723876953125,-1.005462646484375,-0.056488037109375
1768558586175329500,5.52632958984375,0.0618743896484375,-0.997650146484375,-0.0553436279296875
1768558586185359400,5.536359375,0.0347900390625,-1.0058135986328125,-0.0458984375
1768558586195388700,5.546388671875,0.087005615234375,-0.99713134765625,-0.0538787841796875
1768558586205417700,5.556417724609375,0.095428466796875,-1.007110595703125,-0.0393218994140625
1768558586215446500,5.566446533203125,0.095611572265625,-1.001953125,-0.0152130126953125
1768558586225474600,5.576474609375,0.0832061767578125,-1.001434326171875,-0.019927978515625
1768558586235503600,5.586503662109375,0.047119140625,-1.008087158203125,-0.020904541015625
1768558586245532400,5.596532470703125,0.0626678466796875,-1.0051116943359375,0.005645751953125
1768558586255561500,5.6065615234375,0.0777587890625,-0.99798583984375,0.0068511962890625
1768558586265589500,5.616589599609375,0.0533294677734375,-1.007904052734375,-0.019775390625
1768558586275618600,5.62661865234375,0.05108642578125,-0.9962158203125,-0.023040771484375
1768558586285647600,5.636647705078125,0.0542755126953125,-1.001495361328125,-0.0346527099609375
1768558586295676400,5.646676513671875,0.0526885986328125,-1.004241943359375,-0.0337371826171875
1768558586305705500,5.65670556640625,0.0050506591796875,-1.028106689453125,0.0418701171875
1768558586315733800,5.666733642578125,-0.0194244384765625,-0.9663238525390625,-0.025177001953125
1768558586325762600,5.676762451171875,0.1374969482421875,-1.0268096923828125,0.006927490234375
1768558586335791600,5.68679150390625,0.060760498046875,-0.9986724853515625,0.05780029296875
1768558586345820700,5.696820556640625,-0.002410888671875,-0.9969635009765625,0.01129150390625
1768558586355848400,5.706848388671875,0.046173095703125,-1.00128173828125,-0.02099609375
1768558586365877500,5.71687744140625,0.049407958984375,-1.0020294189453125,0.0045013427734375
1768558586375906600,5.726906494140625,0.0316009521484375,-1.005035400390625,-0.0540771484375
1768558586385935600,5.736935546875,0.075042724609375,-0.9954833984375,-0.06103515625
1768558586395964700,5.746964599609375,0.0143280029296875,-1.006500244140625,-0.0615997314453125
1768558586405992400,5.756992431640625,0.05035400390625,-0.983123779296875,-0.07470703125
1768558586416021500,5.767021484375,0.03387451171875,-0.9849090576171875,-0.050201416015625
1768558586426050600,5.777050537109375,0.055328369140625,-0.93048095703125,-0.0341949462890625
1768558586436079600,5.78707958984375,-0.27899169921875,-1.374664306640625,-0.27191162109375
1768558586446107600,5.797107666015625,0.084808349609375,-0.8505096435546875,0.0317840576171875
1768558586456136400,5.807136474609375,0.214935302734375,-0.897430419921875,-0.1004486083984375
1768558586466165500,5.81716552734375,-0.0697479248046875,-1.0186614990234375,-0.057861328125
1768558586476194600,5.827194580078125,-0.050506591796875,-1.0242156982421875,-0.039031982421875
1768558586486223400,5.837223388671875,0.0787811279296875,-0.9700164794921875,-0.064300537109375
1768558586496251600,5.847251708984375,-0.025604248046875,-1.0240325927734375,-0.0255889892578125
1768558586506280700,5.85728076171875,0.04339599609375,-0.986480712890625,-0.0333404541015625
1768558586516309500,5.8673095703125,-0.0000152587890625,-1.00396728515625,-0.050872802734375
1768558586526338600,5.877338623046875,-0.0072784423828125,-1.0136260986328125,-0.0353851318359375
1768558586536367600,5.88736767578125,-0.01885986328125,-0.9913787841796875,-0.049041748046875
1768558586546395600,5.897395751953125,0.0073394775390625,-0.994873046875,-0.0817413330078125
1768558586556424700,5.9074248046875,0.042999267578125,-1.0001983642578125,-0.0460205078125
1768558586566453500,5.91745361328125,-0.0378570556640625,-0.99725341796875,-0.035369873046875
1768558586576482600,5.927482666015625,-0.03216552734375,-0.995849609375,-0.0380096435546875
1768558586586510600,5.937510498046875,0.0115509033203125,-1.0044097900390625,0.0066680908203125
1768558586596539400,5.947539306640625,0.0297393798828125,-0.9984588623046875,0.0078125
1768558586606568400,5.957568359375,0.0112762451171875,-1.0003204345703125,-0.0047760009765625
1768558586616597800,5.96759765625,0.00079345703125,-0.996185302734375,-0.005279541015625
1768558586626626600,5.97762646484375,-0.0065765380859375,-0.9988861083984375,-0.022064208984375
1768558586636654600,5.987654541015625,0.0089263916015625,-0.993438720703125,-0.032562255859375
1768558586646683400,5.997683349609375,0.0151519775390625,-1.0022735595703125,-0.048187255859375
1768558586656712400,6.00771240234375,0.0001373291015625,-0.997802734375,-0.05462646484375
1768558586666741500,6.017741455078125,-0.00213623046875,-0.998748779296875,-0.0343170166015625
1768558586676770600,6.0277705078125,-0.0092620849609375,-1.0035247802734375,-0.0265045166015625
1768558586686798600,6.037798583984375,-0.039581298828125,-1.0024261474609375,-0.0429534912109375
1768558586696827600,6.04782763671875,-0.0176849365234375,-0.9915618896484375,-0.0037994384765625
1768558586706856400,6.0578564453125,-0.045196533203125,-1.0142822265625,0.0238800048828125
1768558586716885500,6.067885498046875,-0.0206451416015625,-0.9942626953125,0.0200042724609375
1768558586726914600,6.07791455078125,0.013763427734375,-1.010223388671875,0.0076446533203125
1768558586736942600,6.087942626953125,0.011962890625,-0.99951171875,0.0236663818359375
1768558586746971600,6.0979716796875,0.005615234375,-1.0077972412109375,-0.0139617919921875
1768558586757000400,6.10800048828125,0.0287933349609375,-0.9956817626953125,-0.049774169921875
1768558586767029500,6.118029541015625,-0.0276336669921875,-1.0066986083984375,-0.064605712890625
1768558586777058600,6.12805859375,-0.03082275390625,-1.0019378662109375,-0.092193603515625
1768558586787086600,6.138086669921875,-0.0025634765625,-0.9927520751953125,-0.0446014404296875
1768558586797115600,6.14811572265625,-0.03045654296875,-1.0112457275390625,-0.037506103515625
1768558586807144700,6.158144775390625,0.004119873046875,-0.992523193359375,-0.02001953125
1768558586817173500,6.168173583984375,-0.0236663818359375,-1.0026397705078125,-0.0025634765625
1768558586827201500,6.178201416015625,-0.021484375,-1.0096588134765625,0.0184173583984375
1768558586837230600,6.188230712890625,-0.022308349609375,-0.9970245361328125,0.0277252197265625
1768558586847259600,6.198259765625,-0.0249786376953125,-1.005035400390625,0.0261383056640625
1768558586857288700,6.208288818359375,-0.0286712646484375,-1.004974365234375,0.0076141357421875
1768558586867317800,6.21831787109375,-0.0478057861328125,-1.005950927734375,-0.01434326171875
1768558586877345500,6.228345458984375,-0.043212890625,-0.9907989501953125,-0.0381317138671875
1768558586887374600,6.23837451171875,-0.076995849609375,-1.0019683837890625,-0.0553131103515625
1768558586897403400,6.2484033203125,-0.055908203125,-0.994232177734375,-0.04486083984375
1768558586907432400,6.258432373046875,-0.048980712890625,-1.0091400146484375,-0.0492401123046875
1768558586917461800,6.268461669921875,-0.0233612060546875,-0.984039306640625,-0.0471038818359375
1768558586927489500,6.278489501953125,-0.026702880859375,-1.0055999755859375,-0.050933837890625
1768558586937518600,6.2885185546875,-0.0118255615234375,-1.003448486328125,-0.058380126953125
1768558586947547600,6.298547607421875,0.023681640625,-0.991455078125,-0.08026123046875
1768558586957576400,6.308576416015625,-0.007476806640625,-1.011016845703125,-0.074615478515625
1768558586967605500,6.31860546875,0.024200439453125,-0.990692138671875,-0.06805419921875
1768558586977633500,6.328633544921875,0.0305328369140625,-0.9996185302734375,-0.064483642578125
1768558586987662600,6.33866259765625,0.0318450927734375,-1.0179290771484375,-0.0677337646484375
1768558586997691600,6.348691650390625,0.033599853515625,-0.9869232177734375,-0.0283050537109375
1768558587007720400,6.358720458984375,-0.00537109375,-0.9990081787109375,-0.013336181640625
1768558587017749500,6.36874951171875,-0.01812744140625,-1.010040283203125,-0.0387420654296875
1768558587027777800,6.37877783203125,0.0278778076171875,-0.99713134765625,-0.000213623046875
1768558587037806600,6.388806640625,-0.014373779296875,-0.9970703125,-0.0283203125
1768558587047835600,6.398835693359375,-0.01153564453125,-1.000335693359375,-0.0523834228515625
1768558587057864700,6.40886474609375,-0.021820068359375,-1.009429931640625,-0.0508575439453125
1768558587067893500,6.4188935546875,0.0050048828125,-0.98370361328125,-0.054443359375
1768558587077921500,6.428921630859375,-0.0381317138671875,-1.006561279296875,-0.0522918701171875
1768558587087950600,6.43895068359375,-0.0238189697265625,-0.9960479736328125,-0.0494537353515625
1768558587097979600,6.448979736328125,-0.0409393310546875,-1.0056915283203125,-0.024261474609375
1768558587108008700,6.4590087890625,-0.017669677734375,-0.9959564208984375,-0.0135498046875
1768558587118037500,6.46903759765625,-0.0262603759765625,-1.0043182373046875,-0.00152587890625
1768558587128065500,6.4790654296875,-0.015045166015625,-1.0002593994140625,0.007843017578125
1768558587138094600,6.489094482421875,-0.0278472900390625,-1.0046234130859375,-0.009307861328125
1768558587148123400,6.499123291015625,-0.018341064453125,-1.00250244140625,-0.0325164794921875
1768558587158152700,6.509152587890625,-0.0235137939453125,-0.9942474365234375,-0.042938232421875
1768558587168181800,6.519181640625,-0.0305328369140625,-0.99444580078125,-0.0560302734375
1768558587178209500,6.52920947265625,-0.0337677001953125,-1.002227783203125,-0.064849853515625
1768558587188238000,6.539238037109375,-0.025604248046875,-1.00604248046875,-0.05242919921875
1768558587198267100,6.54926708984375,0.0155181884765625,-0.9881744384765625,-0.0388946533203125
1768558587208296200,6.559296142578125,-0.0126800537109375,-1.0034332275390625,-0.012939453125
1768558587218325200,6.5693251953125,0.008453369140625,-1.0085601806640625,-0.0070953369140625
1768558587228353300,6.579353271484375,0.050048828125,-0.9915008544921875,0.0081939697265625
1768558587238382000,6.589382080078125,-0.00146484375,-1.0127410888671875,0.010101318359375
1768558587248411100,6.5994111328125,0.0028839111328125,-0.9937591552734375,0.00274658203125
1768558587258440200,6.609440185546875,-0.0134429931640625,-0.997344970703125,-0.0087890625
1768558587268469000,6.619468994140625,0.0049591064453125,-1.006500244140625,-0.0064849853515625
1768558587278497300,6.629497314453125,0.0226287841796875,-1.0006866455078125,-0.025604248046875
1768558587288526300,6.6395263671875,0.0034027099609375,-0.994781494140625,-0.03656005859375
1768558587298555100,6.64955517578125,0.01446533203125,-1.014434814453125,-0.0518035888671875
1768558587308584200,6.659584228515625,0.015777587890625,-0.9881744384765625,-0.0335693359375
1768558587318613200,6.66961328125,-0.0082855224609375,-1.000030517578125,-0.076629638671875
1768558587328641300,6.679641357421875,-0.0054168701171875,-0.998138427734375,-0.08734130859375
1768558587338670300,6.68967041015625,-0.0163421630859375,-1.0030517578125,-0.0692596435546875
1768558587348699100,6.69969921875,-0.0143280029296875,-0.994232177734375,-0.0525360107421875
1768558587358728200,6.709728271484375,-0.0106658935546875,-0.9996490478515625,-0.040802001953125
1768558587368757200,6.71975732421875,-0.0170135498046875,-1.010101318359375,-0.028472900390625
1768558587378785000,6.729784912109375,-0.0103607177734375,-0.9945220947265625,-0.0223236083984375
1768558587388814300,6.739814453125,-0.0034027099609375,-1.00146484375,-0.033233642578125
1768558587398843400,6.749843505859375,-0.0301971435546875,-1,-0.032196044921875
1768558587408872200,6.7598720703125,-0.0272674560546875,-1.001556396484375,-0.0448455810546875
1768558587418901200,6.7699013671875,-0.0702667236328125,-1.000335693359375,-0.042022705078125
1768558587428929000,6.779928955078125,-0.026092529296875,-0.9962921142578125,-0.0377044677734375
1768558587438958000,6.7899580078125,-0.042999267578125,-1.0081939697265625,-0.0225982666015625
1768558587448987100,6.799987060546875,-0.0248870849609375,-0.9957427978515625,-0.0316162109375
1768558587459016200,6.81001611328125,-0.04119873046875,-1.003143310546875,-0.0328826904296875
1768558587469045200,6.820045166015625,-0.0382232666015625,-0.994598388671875,-0.0543212890625
1768558587479073300,6.8300732421875,-0.0284881591796875,-0.99664306640625,-0.0800323486328125
1768558587489102000,6.84010205078125,-0.035369873046875,-1.000732421875,-0.0839996337890625
1768558587499131100,6.850131103515625,-0.0185089111328125,-0.9958038330078125,-0.0870819091796875
1768558587509160200,6.86016015625,-0.018280029296875,-1.0014801025390625,-0.0734405517578125
1768558587519189000,6.87018896484375,-0.0332183837890625,-0.99261474609375,-0.0450897216796875
1768558587529217300,6.88021728515625,-0.0297698974609375,-1.0022735595703125,-0.0338134765625
1768558587539246000,6.89024609375,-0.018798828125,-0.9949951171875,-0.0081329345703125
1768558587549275100,6.900275146484375,-0.027374267578125,-1.0037384033203125,0.0085906982421875
1768558587559304200,6.91030419921875,-0.0218505859375,-0.9990386962890625,-0.01263427734375
1768558587569333000,6.9203330078125,-0.0297698974609375,-1.002899169921875,-0.02606201171875
1768558587579362000,6.930362060546875,-0.0076446533203125,-0.99169921875,-0.023406982421875
1768558587589390300,6.940390380859375,-0.0127716064453125,-0.9991912841796875,-0.03460693359375
1768558587599419100,6.950419189453125,-0.011260986328125,-1.004119873046875,-0.0566253662109375
1768558587609448200,6.9604482421875,0.01287841796875,-0.9955596923828125,-0.084136962890625
1768558587619477200,6.970477294921875,-0.0091094970703125,-0.9978790283203125,-0.0980224609375
1768558587629506000,6.980506103515625,-0.037384033203125,-1.0026397705078125,-0.1241455078125
1768558587639534300,6.990534423828125,-0.042388916015625,-0.9848175048828125,-0.13482666015625
1768558587649563100,7.000563232421875,-0.0347137451171875,-0.99261474609375,-0.1400146484375
1768558587659592200,7.01059228515625,-0.0268402099609375,-0.9871063232421875,-0.1281585693359375
1768558587669621200,7.020621337890625,-0.0189361572265625,-0.9996490478515625,-0.103302001953125
1768558587679650300,7.030650390625,0.0124664306640625,-0.9891510009765625,-0.0899658203125
1768558587689678000,7.040677978515625,0.028411865234375,-0.99932861328125,-0.0635986328125
1768558587699707400,7.050707275390625,-0.0035552978515625,-1.0267333984375,-0.007904052734375
1768558587709736200,7.060736083984375,0.0112152099609375,-0.98699951171875,0.0381622314453125
1768558587719765200,7.07076513671875,0.0345916748046875,-0.992919921875,0.0565185546875
1768558587729794300,7.080794189453125,-0.0037384033203125,-1.01153564453125,0.0611114501953125
1768558587739822000,7.090822021484375,0.0298919677734375,-1.0033721923828125,0.0792694091796875
1768558587749851100,7.10085107421875,-0.0447845458984375,-0.98089599609375,0.109375
1768558587759880200,7.110880126953125,-0.063629150390625,-1.0234222412109375,0.0732574462890625
1768558587769909200,7.1209091796875,-0.001312255859375,-0.966278076171875,0.0914154052734375
1768558587779938300,7.130938232421875,-0.0547332763671875,-0.9521636962890625,0.091522216796875
1768558587789967400,7.14096728515625,-0.2437591552734375,-1.26641845703125,-0.149169921875
1768558587799995100,7.1509951171875,0.138824462890625,-0.9683685302734375,0.0010833740234375
1768558587810024200,7.161024169921875,0.0784149169921875,-0.8634796142578125,0.0563812255859375
1768558587820053000,7.171052978515625,-0.1162872314453125,-1.0858154296875,-0.085479736328125
1768558587830082300,7.181082275390625,0.122650146484375,-0.9674530029296875,-0.023895263671875
1768558587840111400,7.191111328125,-0.01141357421875,-1.0133056640625,-0.0244293212890625
1768558587850139100,7.20113916015625,0.0738525390625,-0.9899749755859375,-0.0138092041015625
1768558587860168200,7.211168212890625,0.04437255859375,-1.0127716064453125,-0.0213775634765625
1768558587870197200,7.221197265625,0.0429229736328125,-0.991546630859375,-0.0195465087890625
1768558587880226000,7.23122607421875,-0.01568603515625,-1.0092315673828125,-0.030975341796875
1768558587890255000,7.241255126953125,0.017333984375,-0.986419677734375,-0.0295562744140625
1768558587900284400,7.251284423828125,-0.022796630859375,-1.003936767578125,-0.0249481201171875
1768558587910312200,7.261312255859375,-0.013519287109375,-0.9943695068359375,-0.0235443115234375
1768558587920341200,7.27134130859375,-0.02642822265625,-1.001220703125,-0.0086212158203125
1768558587930370000,7.2813701171875,-0.0038909912109375,-0.994293212890625,0.0110321044921875
1768558587940399000,7.291399169921875,0.0016937255859375,-1.0055084228515625,0.01934814453125
1768558587950428200,7.30142822265625,0.0224609375,-0.9990692138671875,0.0123748779296875
1768558587960456200,7.311456298828125,0.0450592041015625,-0.9952545166015625,-0.02716064453125
1768558587970485200,7.3214853515625,0.035919189453125,-1.0116729736328125,-0.0669097900390625
1768558587980514300,7.331514404296875,0.0418701171875,-0.99383544921875,-0.0914306640625
1768558587990543000,7.341543212890625,0.0140380859375,-0.993560791015625,-0.1128997802734375
1768558588000572200,7.351572265625,-0.01434326171875,-1.001220703125,-0.1169586181640625
1768558588010601200,7.361601318359375,-0.02978515625,-0.9939422607421875,-0.097900390625
1768558588020629200,7.371629150390625,-0.02197265625,-1.0200653076171875,-0.0760650634765625
1768558588030658300,7.381658203125,0.0891571044921875,-0.9648284912109375,-0.049346923828125
1768558588040687000,7.39168701171875,-0.142608642578125,-1.037261962890625,-0.000213623046875
1768558588050716200,7.401716064453125,-0.0363006591796875,-0.9755859375,-0.0010833740234375
1768558588060745200,7.4117451171875,-0.0307464599609375,-1.0049896240234375,0.010772705078125
1768558588070773200,7.421773193359375,-0.0410919189453125,-1.0119781494140625,-0.032623291015625
1768558588080802300,7.43180224609375,0.0084228515625,-0.988983154296875,-0.061614990234375
1768558588090831400,7.441831298828125,-0.024383544921875,-1.0081939697265625,-0.0975799560546875
1768558588100860200,7.451860107421875,0.0210113525390625,-0.983306884765625,-0.128631591796875
1768558588110889200,7.46188916015625,-0.0240936279296875,-1.01190185546875,-0.1546630859375
1768558588120917000,7.4719169921875,-0.0067138671875,-0.986907958984375,-0.147979736328125
1768558588130946000,7.481946044921875,-0.0512847900390625,-0.998565673828125,-0.1370849609375
1768558588140975400,7.491975341796875,-0.0611572265625,-0.995635986328125,-0.112060546875
1768558588151004200,7.502004150390625,-0.0547943115234375,-0.9910736083984375,-0.0568695068359375
1768558588161033200,7.512033203125,-0.0614776611328125,-1.0118255615234375,-0.017547607421875
1768558588171062300,7.522062255859375,-0.0361328125,-0.99407958984375,0.0323028564453125
1768558588181089800,7.53208984375,-0.06072998046875,-1.00469970703125,0.047821044921875
1768558588191118800,7.542118896484375,-0.0552520751953125,-1.0066375732421875,0.04095458984375
1768558588201148000,7.55214794921875,-0.0643768310546875,-0.9965972900390625,0.0243988037109375
1768558588211177000,7.562177001953125,-0.0824432373046875,-1.0039215087890625,-0.01593017578125
1768558588221206000,7.5722060546875,-0.0692291259765625,-0.9898834228515625,-0.036529541015625
1768558588231234800,7.58223486328125,-0.0860443115234375,-1.005767822265625,-0.053985595703125
1768558588241262800,7.592262939453125,-0.0891571044921875,-0.991180419921875,-0.0589599609375
1768558588251292000,7.6022919921875,-0.045135498046875,-1.003326416015625,-0.03955078125
1768558588261320700,7.61232080078125,-0.05450439453125,-0.999755859375,-0.04302978515625
1768558588271350000,7.62235009765625,-0.0055084228515625,-1.0036163330078125,-0.046142578125
1768558588281379000,7.632379150390625,-0.0477752685546875,-0.98809814453125,-0.0320892333984375
1768558588291406800,7.64240673828125,-0.1224212646484375,-1.01336669921875,-0.033721923828125
1768558588301436000,7.652435791015625,-0.0211181640625,-0.9842071533203125,-0.029815673828125
1768558588311464700,7.662464599609375,-0.0486297607421875,-1.01092529296875,-0.0311431884765625
1768558588321493800,7.67249365234375,-0.017822265625,-0.9908905029296875,-0.02044677734375
1768558588331522800,7.682522705078125,-0.0520477294921875,-1.0057373046875,-0.0155029296875
1768558588341551900,7.6925517578125,-0.060791015625,-0.997802734375,-0.0201568603515625
1768558588351580000,7.702579833984375,-0.1180267333984375,-0.99859619140625,-0.027984619140625
1768558588361609000,7.71260888671875,-0.1274261474609375,-0.995697021484375,-0.0249481201171875
1768558588371637800,7.7226376953125,-0.023468017578125,-1.002960205078125,-0.0537567138671875
1768558588381666800,7.732666748046875,0.028564453125,-0.992584228515625,-0.057952880859375
1768558588391696000,7.74269580078125,-0.0197906494140625,-1.0088958740234375,-0.0662078857421875
1768558588401725000,7.752724853515625,-0.0236968994140625,-0.997589111328125,-0.0492095947265625
1768558588411753000,7.7627529296875,0.0035552978515625,-1.0030059814453125,-0.0569915771484375
1768558588421781800,7.77278173828125,0.013763427734375,-0.9911041259765625,-0.05859375
1768558588431810800,7.782810791015625,-0.0173492431640625,-1.003326416015625,-0.06475830078125
1768558588441839900,7.79283984375,-0.0117645263671875,-0.9950714111328125,-0.079254150390625
1768558588451869000,7.802868896484375,-0.022735595703125,-0.99658203125,-0.0732879638671875
1768558588461897000,7.81289697265625,-0.0257110595703125,-1.0087890625,-0.069061279296875
1768558588471926000,7.822926025390625,-0.0008544921875,-0.9922637939453125,-0.055694580078125
1768558588481954800,7.832954833984375,-0.02740478515625,-1.00201416015625,-0.04010009765625
1768558588491984000,7.84298388671875,-0.0107574462890625,-1.005218505859375,-0.0276336669921875
1768558588502013000,7.853012939453125,0.009979248046875,-0.99798583984375,-0.009674072265625
1768558588512041700,7.863041748046875,0.0070648193359375,-0.9906158447265625,0.0037994384765625
1768558588522070000,7.873070068359375,-0.00640869140625,-1.0149688720703125,-0.0075225830078125
1768558588532099000,7.88309912109375,0.040496826171875,-0.9867401123046875,-0.006988525390625
1768558588542127900,7.8931279296875,-0.00225830078125,-1.018524169921875,-0.0309906005859375
1768558588552157000,7.903156982421875,0.0263671875,-0.9970550537109375,-0.0380706787109375
1768558588562186000,7.91318603515625,0.02685546875,-0.9939422607421875,-0.055450439453125
1768558588572214800,7.92321484375,0.0090789794921875,-1.01251220703125,-0.076080322265625
1768558588582243000,7.9332431640625,0.007537841796875,-0.99224853515625,-0.09307861328125
1768558588592272000,7.94327197265625,-0.0290069580078125,-1.0034942626953125,-0.10369873046875
1768558588602301000,7.953301025390625,0.01043701171875,-0.9803466796875,-0.105987548828125
1768558588612330000,7.963330078125,-0.040985107421875,-1.008575439453125,-0.1002655029296875
1768558588622358800,7.97335888671875,-0.0436859130859375,-0.99798583984375,-0.0900421142578125
1768558588632386800,7.98338671875,-0.016815185546875,-0.9890289306640625,-0.0496673583984375
1768558588642416000,7.993416015625,-0.038818359375,-1.0063018798828125,-0.0552978515625
1768558588652445000,8.00344482421875,-0.0482940673828125,-0.995147705078125,-0.04827880859375
1768558588662474000,8.013473876953125,-0.026214599609375,-0.9959564208984375,-0.0417327880859375
1768558588672503000,8.0235029296875,-0.0395355224609375,-1.01312255859375,-0.0276641845703125
1768558588682531800,8.03353173828125,-0.016082763671875,-0.995269775390625,-0.019317626953125
1768558588692560000,8.043559814453126,-0.0459747314453125,-0.997650146484375,0.004669189453125
1768558588702588700,8.053588623046876,-0.0515594482421875,-1.0009918212890625,0.0220489501953125
1768558588712618000,8.063617919921874,-0.0306396484375,-0.99432373046875,0.0313262939453125
1768558588722647000,8.07364697265625,-0.045135498046875,-1.0139007568359375,0.0017547607421875
1768558588732675800,8.08367578125,-0.070343017578125,-0.9969482421875,-0.027862548828125
1768558588742705000,8.093704833984376,-0.07989501953125,-0.9947967529296875,-0.0303192138671875
1768558588752733000,8.10373291015625,-0.1219329833984375,-1.0094146728515625,-0.0539703369140625
1768558588762761700,8.11376171875,-0.0915985107421875,-0.9881744384765625,-0.0474395751953125
1768558588772790800,8.123790771484375,-0.06121826171875,-1.00177001953125,-0.0570526123046875
1768558588782820000,8.133820068359375,-0.00140380859375,-1.0055999755859375,-0.06304931640625
1768558588792849000,8.143848876953125,-0.046844482421875,-0.9968414306640625,-0.046539306640625
1768558588802878000,8.1538779296875,-0.100799560546875,-0.99334716796875,-0.03076171875
1768558588812905700,8.16390576171875,-0.1075439453125,-0.995025634765625,-0.03277587890625
1768558588822934800,8.173934814453125,-0.0948333740234375,-1.0005340576171875,-0.0287933349609375
1768558588832963800,8.1839638671875,-0.08355712890625,-0.9973907470703125,-0.0256805419921875
1768558588842993000,8.193992919921875,-0.120574951171875,-1.001251220703125,-0.0169219970703125
1768558588853022000,8.20402197265625,-0.14385986328125,-0.980743408203125,-0.0291900634765625
1768558588863051000,8.214051025390624,-0.171295166015625,-1.005828857421875,-0.041595458984375
1768558588873078800,8.224078857421874,-0.146514892578125,-0.9969635009765625,-0.045684814453125
1768558588883107800,8.23410791015625,-0.1993865966796875,-0.985870361328125,-0.0379638671875
1768558588893137000,8.244136962890625,-0.168548583984375,-1.002593994140625,-0.0426025390625
1768558588903165700,8.254165771484375,-0.148681640625,-0.996124267578125,-0.0525665283203125
1768558588913195000,8.264195068359374,-0.1454620361328125,-1.00048828125,-0.0467529296875
1768558588923224000,8.27422412109375,-0.0911712646484375,-0.99688720703125,-0.0675811767578125
1768558588933251800,8.284251953125,-0.1142120361328125,-0.9821014404296875,-0.0464019775390625
1768558588943281000,8.294281005859375,-0.1929931640625,-1.0053253173828125,-0.0412139892578125
1768558588953310000,8.30431005859375,-0.18310546875,-1.024658203125,0.035125732421875
1768558588963338800,8.3143388671875,-0.16046142578125,-0.97564697265625,-0.02838134765625
1768558588973367800,8.324367919921874,-0.0968017578125,-0.99005126953125,-0.0361328125
1768558588983397000,8.334397216796875,-0.19183349609375,-1.002716064453125,-0.0297393798828125
1768558588993425000,8.3444248046875,-0.1370086669921875,-1.0024261474609375,-0.0251312255859375
1768558589003454000,8.354453857421875,-0.161102294921875,-0.987945556640625,-0.0285491943359375
1768558589013482800,8.364482666015626,-0.186553955078125,-1.0010223388671875,-0.0433197021484375
1768558589023511800,8.37451171875,-0.1810302734375,-0.997161865234375,-0.0452117919921875
1768558589033540900,8.384540771484374,-0.0808563232421875,-0.9973602294921875,-0.0081939697265625
1768558589043570000,8.39456982421875,-0.2001953125,-1.0018768310546875,-0.0626068115234375
1768558589053598000,8.404597900390625,-0.2195892333984375,-0.9809112548828125,-0.07373046875
1768558589063627000,8.414626953125,-0.2756500244140625,-1.0034637451171875,-0.0881805419921875
1768558589073655800,8.42465576171875,-0.2469482421875,-0.9883880615234375,-0.0470733642578125
1768558589083684900,8.434684814453124,-0.184661865234375,-0.9842071533203125,-0.0398406982421875
1768558589093714000,8.4447138671875,-0.1457977294921875,-0.998687744140625,-0.0662841796875
1768558589103742700,8.45474267578125,-0.104034423828125,-0.9963531494140625,-0.0302734375
1768558589113771000,8.46477099609375,-0.01495361328125,-1.0020751953125,-0.033660888671875
1768558589123799800,8.4747998046875,0.068084716796875,-1.0061492919921875,-0.0351104736328125
1768558589133828900,8.484828857421874,0.1209259033203125,-0.9997406005859375,-0.0352020263671875
1768558589143858000,8.49485791015625,0.1184539794921875,-0.9980926513671875,-0.055450439453125
1768558589153886700,8.50488671875,0.0670318603515625,-1.0062103271484375,-0.06805419921875
1768558589163915800,8.514915771484375,0.0085601806640625,-1.0072479248046875,-0.0402374267578125
1768558589173944000,8.524944091796876,-0.2435455322265625,-0.9735107421875,0.0060882568359375
1768558589183973600,8.5349736328125,-0.3727874755859375,-1.007965087890625,-0.0728302001953125
1768558589194002700,8.545002685546875,0.0520782470703125,-1.008392333984375,-0.088043212890625
1768558589204031500,8.555031494140625,0.127166748046875,-0.9945831298828125,0.011962890625
1768558589214060500,8.565060546875,0.12396240234375,-0.995147705078125,-0.0202789306640625
1768558589224089600,8.575089599609376,0.08624267578125,-1.007049560546875,-0.0878753662109375
1768558589234117600,8.58511767578125,0.00994873046875,-1.0109710693359375,-0.070556640625
1768558589244146700,8.595146728515624,-0.046844482421875,-0.989044189453125,0.0143585205078125
1768558589254175700,8.60517578125,-0.0839385986328125,-0.990692138671875,-0.0259552001953125
1768558589264204500,8.61520458984375,-0.109375,-1.01025390625,-0.09649658203125
1768558589274233600,8.625233642578126,-0.111053466796875,-0.9927978515625,-0.0390472412109375
1768558589284262700,8.6352626953125,-0.1111602783203125,-0.986968994140625,-0.0162811279296875
1768558589294290400,8.64529052734375,-0.1097259521484375,-1.003265380859375,-0.0713653564453125
1768558589304319700,8.65531982421875,-0.10394287109375,-0.9967803955078125,-0.048492431640625
1768558589314348500,8.6653486328125,-0.0791778564453125,-0.99249267578125,-0.025665283203125
1768558589324377600,8.675377685546875,-0.043487548828125,-1.0035858154296875,-0.053619384765625
1768558589334406700,8.68540673828125,-0.0061798095703125,-1.0019683837890625,-0.0475311279296875
1768558589344435500,8.695435546875,0.0356597900390625,-0.9990692138671875,-0.0251617431640625
1768558589354463500,8.70546337890625,0.062713623046875,-1.001129150390625,-0.039337158203125
1768558589364492500,8.715492431640625,0.0549468994140625,-1.0037384033203125,-0.0621795654296875
1768558589374521600,8.725521484375,0.02069091796875,-1.001739501953125,-0.0474700927734375
1768558589384550700,8.735550537109376,-0.018341064453125,-0.998321533203125,-0.0241241455078125
1768558589394579700,8.745579833984374,-0.05194091796875,-0.9976959228515625,-0.0395660400390625
1768558589404608500,8.7556083984375,-0.0735931396484375,-1.001922607421875,-0.0571441650390625
1768558589414636500,8.765636474609375,-0.0879364013671875,-0.9958648681640625,-0.042755126953125
1768558589424665300,8.775665283203125,-0.09765625,-0.9944915771484375,-0.0373992919921875
1768558589434694700,8.785694580078125,-0.0922088623046875,-0.9997406005859375,-0.054473876953125
1768558589444723700,8.7957236328125,-0.0792694091796875,-0.9976806640625,-0.0464019775390625
1768558589454752500,8.80575244140625,-0.0585479736328125,-0.9966888427734375,-0.0389862060546875
1768558589464781600,8.815781494140625,-0.03619384765625,-1.0020294189453125,-0.0469207763671875
1768558589474810600,8.825810546875,-0.01422119140625,-1.00152587890625,-0.04315185546875
1768558589484838400,8.83583837890625,0.009307861328125,-1.000030517578125,-0.0362396240234375
1768558589494867500,8.845867431640626,0.0196075439453125,-1.0012359619140625,-0.0413665771484375
1768558589504896800,8.855896728515624,0.0156402587890625,-1.001678466796875,-0.048675537109375
1768558589514925600,8.865925537109375,-0.0022735595703125,-1.0007781982421875,-0.041717529296875
1768558589524954600,8.87595458984375,-0.025543212890625,-0.997283935546875,-0.0363922119140625
1768558589534983700,8.885983642578125,-0.0467681884765625,-1.00079345703125,-0.0475311279296875
1768558589545011500,8.896011474609375,-0.062713623046875,-0.999114990234375,-0.04620361328125
1768558589555040500,8.90604052734375,-0.07012939453125,-0.99609375,-0.0416107177734375
1768558589565069600,8.916069580078124,-0.0750274658203125,-0.9970550537109375,-0.0436248779296875
1768558589575098600,8.9260986328125,-0.0711212158203125,-0.998992919921875,-0.0482940673828125
1768558589585127700,8.936127685546875,-0.061187744140625,-0.997467041015625,-0.0424041748046875
1768558589595156700,8.94615673828125,-0.0486297607421875,-0.9986114501953125,-0.0440216064453125
1768558589605184500,8.9561845703125,-0.0328216552734375,-1.000762939453125,-0.04571533203125
1768558589615213600,8.966213623046874,-0.016357421875,-1.001007080078125,-0.04052734375
1768558589625242400,8.976242431640625,-0.003936767578125,-1.0011138916015625,-0.0412445068359375
1768558589635271400,8.986271484375,0.00030517578125,-1.0009765625,-0.044036865234375
1768558589645300700,8.99630078125,-0.006500244140625,-1,-0.042938232421875
1768558589655329500,9.00632958984375,-0.018402099609375,-0.999908447265625,-0.0413055419921875
1768558589665357600,9.016357666015624,-0.032135009765625,-0.999267578125,-0.04296875
1768558589675386600,9.02638671875,-0.046173095703125,-0.9988861083984375,-0.044464111328125
1768558589685415400,9.03641552734375,-0.054443359375,-0.99859619140625,-0.0431365966796875
1768558589695444500,9.046444580078125,-0.0597076416015625,-0.9987945556640625,-0.0442047119140625
1768558589705473500,9.0564736328125,-0.05908203125,-0.9991607666015625,-0.0450286865234375
1768558589715502600,9.066502685546874,-0.0570526123046875,-0.998687744140625,-0.0443115234375
1768558589725531600,9.07653173828125,-0.049468994140625,-0.9976654052734375,-0.04364013671875
1768558589735559400,9.086559326171875,-0.0403594970703125,-1.0002899169921875,-0.0438385009765625
1768558589745588500,9.09658837890625,-0.0281524658203125,-0.9988555908203125,-0.043212890625
1768558589755617500,9.106617431640625,-0.019317626953125,-0.99981689453125,-0.0440673828125
1768558589765646300,9.116646240234376,-0.015289306640625,-0.9995574951171875,-0.043975830078125
1768558589775675600,9.126675537109374,-0.0142822265625,-1.000030517578125,-0.0430145263671875
1768558589785704700,9.13670458984375,-0.0212860107421875,-0.9993896484375,-0.0431365966796875
1768558589795732500,9.146732421875,-0.0302276611328125,-0.9986419677734375,-0.0438690185546875
1768558589805761500,9.156761474609375,-0.038909912109375,-0.9998321533203125,-0.044036865234375
1768558589815790600,9.16679052734375,-0.0591583251953125,-0.9903564453125,-0.0356903076171875
1768558589825819400,9.1768193359375,-0.1982421875,-0.9753875732421875,0.0403289794921875
1768558589835848400,9.186848388671875,-0.1203765869140625,-1.0335540771484375,-0.0563201904296875
1768558589845877800,9.196877685546875,0.0956268310546875,-0.9945831298828125,0.010162353515625
1768558589855906600,9.206906494140625,0.19097900390625,-1.00628662109375,-0.0130615234375
1768558589865934600,9.2169345703125,0.209381103515625,-1.0026397705078125,-0.0557861328125
1768558589875963400,9.22696337890625,0.1634674072265625,-1.012603759765625,0.004913330078125
1768558589885992400,9.236992431640624,0.0359954833984375,-0.9934844970703125,0.109375
1768558589896021500,9.247021484375,-0.0212249755859375,-1.008087158203125,0.004730224609375
1768558589906050600,9.257050537109375,-0.0656280517578125,-1.005035400390625,-0.0282135009765625
1768558589916079600,9.26707958984375,-0.1107940673828125,-0.98602294921875,-0.06793212890625
1768558589926107600,9.277107666015626,-0.1234130859375,-0.9919281005859375,-0.1317901611328125
1768558589936136400,9.287136474609374,-0.1240234375,-0.995147705078125,-0.1613006591796875
1768558589946165500,9.29716552734375,-0.1048126220703125,-0.98333740234375,-0.1692047119140625
1768558589956194600,9.307194580078125,-0.237884521484375,-0.9706878662109375,-0.1439666748046875
1768558589966223400,9.317223388671875,-0.400238037109375,-0.9723968505859375,0.073516845703125
1768558589976252700,9.327252685546876,-0.3159637451171875,-1.01605224609375,0.0726776123046875
1768558589986280700,9.33728076171875,-0.1950225830078125,-1.027496337890625,0.051544189453125
1768558589996309500,9.3473095703125,0.2539215087890625,-1.06878662109375,0.0081939697265625
1768558590006338600,9.357338623046875,0.5046539306640625,-0.889678955078125,-0.2001953125
1768558590016367600,9.36736767578125,0.0753631591796875,-0.9940032958984375,-0.350341796875
1768558590026396400,9.377396484375,-0.0576934814453125,-1.02972412109375,-0.1624755859375
1768558590036425500,9.387425537109374,0.131591796875,-0.988922119140625,0.1004486083984375
1768558590046454800,9.397454833984375,0.0394134521484375,-1.0350341796875,0.089080810546875
1768558590056482600,9.407482666015625,0.1135101318359375,-0.9953460693359375,0.034271240234375
1768558590066511600,9.41751171875,0.125396728515625,-1.002410888671875,-0.0440216064453125
1768558590076540400,9.42754052734375,0.12164306640625,-1.01702880859375,-0.0726318359375
1768558590086569500,9.437569580078126,0.152435302734375,-0.994873046875,-0.0505828857421875
1768558590096598500,9.4475986328125,0.05511474609375,-1.0165252685546875,-0.0665740966796875
1768558590106627600,9.457627685546875,0.0572357177734375,-0.9945831298828125,-0.0422821044921875
1768558590116656600,9.46765673828125,-0.0150909423828125,-1.0095367431640625,-0.0325775146484375
1768558590126684700,9.4776845703125,0.0171661376953125,-0.9981231689453125,-0.0340423583984375
1768558590136713500,9.48771337890625,0.0936431884765625,-1.000885009765625,-0.038055419921875
1768558590146742500,9.497742431640624,0.1351318359375,-1.006103515625,-0.0272216796875
1768558590156771600,9.507771484375,0.147064208984375,-1.013946533203125,0.0118255615234375
1768558590166800400,9.51780029296875,-0.0550384521484375,-1.10772705078125,-0.02398681640625
1768558590176829700,9.52782958984375,-0.18145751953125,-1.0161895751953125,0.0460357666015625
1768558590186857500,9.537857421875,-0.5478363037109375,-1.016571044921875,0.1205902099609375
1768558590196886300,9.54788623046875,0.0925445556640625,-0.931884765625,0.149627685546875
1768558590206915300,9.557915283203124,0.2175140380859375,-0.93426513671875,-0.09271240234375
1768558590216944400,9.5679443359375,-0.04400634765625,-1.0238037109375,-0.1388092041015625
1768558590226973200,9.57797314453125,0.12774658203125,-0.9652862548828125,-0.1361083984375
1768558590237002500,9.58800244140625,0.064544677734375,-1.0060577392578125,-0.1281890869140625
1768558590247031600,9.598031494140624,0.08197021484375,-1.008514404296875,-0.0833892822265625
1768558590257059300,9.608059326171874,0.0466156005859375,-1.005462646484375,-0.063568115234375
1768558590267088400,9.61808837890625,0.0984954833984375,-1.0009002685546875,-0.07464599609375
1768558590277117400,9.628117431640625,0.1523895263671875,-1.0005950927734375,-0.099700927734375
1768558590287146200,9.638146240234375,0.083770751953125,-1.0040130615234375,-0.0805511474609375
1768558590297175300,9.64817529296875,0.0146942138671875,-0.9963531494140625,-0.0923309326171875
1768558590307204600,9.65820458984375,-0.0168304443359375,-1.0042724609375,-0.0618743896484375
1768558590317232400,9.668232421875,0.03570556640625,-0.9969024658203125,-0.0123748779296875
1768558590327261400,9.678261474609375,-0.006072998046875,-1.0030517578125,0.015228271484375
1768558590337290200,9.688290283203125,-0.037261962890625,-0.9999542236328125,0.0378875732421875
1768558590347319300,9.6983193359375,-0.1033477783203125,-1.008758544921875,0.058074951171875
1768558590357348400,9.708348388671874,-0.1071624755859375,-0.98187255859375,0.0775909423828125
1768558590367377400,9.71837744140625,-0.1944122314453125,-1.00140380859375,0.06585693359375
1768558590377406500,9.728406494140625,-0.17156982421875,-0.99945068359375,0.056854248046875
1768558590387434500,9.7384345703125,-0.138885498046875,-1.0008392333984375,0.0148773193359375
1768558590397463300,9.74846337890625,-0.0859527587890625,-0.9991302490234375,-0.0189666748046875
1768558590407492400,9.758492431640626,-0.050048828125,-0.99127197265625,-0.0863037109375
1768558590417521400,9.768521484375,-0.014801025390625,-1.00689697265625,-0.125030517578125
1768558590427550200,9.77855029296875,0.0550994873046875,-0.9951019287109375,-0.150482177734375
1768558590437579500,9.78857958984375,0.0944366455078125,-0.9975738525390625,-0.161895751953125
1768558590447608600,9.798608642578126,0.094635009765625,-1.0064849853515625,-0.10589599609375
1768558590457636400,9.80863623046875,0.120086669921875,-1.0199127197265625,-0.0567626953125
1768558590467665400,9.81866552734375,0.1218719482421875,-0.9666595458984375,-0.0782623291015625
1768558590477694500,9.828694580078125,0.177886962890625,-1.038330078125,0.06085205078125
1768558590487723300,9.83872314453125,0.1612701416015625,-0.989898681640625,0.0552520751953125
1768558590497752300,9.84875244140625,-0.02899169921875,-0.993988037109375,0.0333709716796875
1768558590507781600,9.85878173828125,-0.1861419677734375,-0.99920654296875,-0.042755126953125
1768558590517810400,9.868810546875,-0.13751220703125,-0.994384765625,-0.1272125244140625
1768558590527838500,9.87883837890625,-0.072265625,-0.9994049072265625,-0.170013427734375
1768558590537867300,9.8888671875,-0.0141143798828125,-0.9908294677734375,-0.1585693359375
1768558590547896300,9.898896240234375,-0.0157318115234375,-1.00732421875,-0.1507568359375
1768558590557925400,9.90892529296875,-0.0224609375,-0.9940643310546875,-0.1112823486328125
1768558590567954200,9.9189541015625,-0.01641845703125,-0.9842376708984375,-0.0876007080078125
1768558590577983500,9.9289833984375,-0.0955963134765625,-1.001953125,-0.0434722900390625
1768558590588011500,9.939011474609375,-0.0240325927734375,-1.0032958984375,-0.01885986328125
1768558590598040300,9.949040283203125,-0.1052703857421875,-0.9876708984375,-0.05029296875
1768558590608069400,9.9590693359375,-0.0018463134765625,-1.015472412109375,0.00384521484375
1768558590618098400,9.969098388671876,-0.0098876953125,-0.9998626708984375,0.0030364990234375
1768558590628127200,9.979127197265624,0.0698699951171875,-0.9902191162109375,0.0289764404296875
1768558590638156300,9.98915625,0.0592803955078125,-1.0027618408203125,0.0494537353515625
1768558590648185600,9.999185546875,-0.021240234375,-1.0274505615234375,0.0780181884765625
1768558590658213400,10.00921337890625,-0.02740478515625,-1.004364013671875,0.0699615478515625
1768558590668242400,10.019242431640626,-0.0210723876953125,-0.9885711669921875,-0.043060302734375
1768558590678271200,10.029271240234374,-0.02056884765625,-1.0058441162109375,-0.121307373046875
1768558590688300300,10.03930029296875,0.0734710693359375,-0.990325927734375,-0.15228271484375
1768558590698329300,10.049329345703125,0.139739990234375,-0.99700927734375,-0.171142578125
1768558590708358400,10.0593583984375,0.1573944091796875,-1.0074005126953125,-0.1253509521484375
1768558590718387500,10.069387451171876,0.11383056640625,-1.000030517578125,-0.0728912353515625
1768558590728415500,10.07941552734375,0.0936431884765625,-0.9964447021484375,-0.0330047607421875
1768558590738444300,10.0894443359375,-0.0056610107421875,-1.0030517578125,-0.0569000244140625
1768558590748473300,10.099473388671875,-0.0500030517578125,-1.0008544921875,-0.0341033935546875
1768558590758502400,10.10950244140625,-0.1034088134765625,-1.00384521484375,-0.019287109375
1768558590768531200,10.11953125,-0.1907806396484375,-0.99822998046875,-0.0198822021484375
1768558590778560500,10.129560546875,-0.246429443359375,-0.9881439208984375,-0.0267791748046875
1768558590788589600,10.139589599609375,-0.204803466796875,-0.990386962890625,-0.0149383544921875
1768558590798617300,10.149617431640625,-0.11669921875,-0.9866943359375,-0.0305023193359375
1768558590808646400,10.159646484375,-0.0973358154296875,-1.0012359619140625,-0.0777740478515625
1768558590818675200,10.16967529296875,0.0260009765625,-0.99993896484375,-0.100677490234375
1768558590828704300,10.179704345703126,0.134002685546875,-1.006683349609375,-0.0697021484375
1768558590838733300,10.1897333984375,0.1871185302734375,-1.0138702392578125,-0.0273895263671875
1768558590848762600,10.1997626953125,0.1830291748046875,-1.000762939453125,-0.0193023681640625
1768558590858791400,10.20979150390625,0.1285858154296875,-1.012359619140625,0.005859375
1768558590868819500,10.2198193359375,0.0677337646484375,-1.0119781494140625,0.01263427734375
1768558590878848300,10.22984814453125,-0.03271484375,-1.0010223388671875,-0.01007080078125
1768558590888877300,10.239877197265624,-0.082489013671875,-0.998748779296875,-0.049530029296875
1768558590898906400,10.24990625,-0.1001129150390625,-0.986907958984375,-0.1439971923828125
1768558590908935400,10.259935302734375,-0.081207275390625,-0.9865875244140625,-0.1840362548828125
1768558590918964500,10.269964599609375,-0.033905029296875,-0.9876861572265625,-0.179718017578125
1768558590928993500,10.27999365234375,0.02227783203125,-0.9965972900390625,-0.1432342529296875
1768558590939021300,10.290021240234376,0.0697174072265625,-1.0084228515625,-0.0979766845703125
1768558590949050400,10.30005029296875,0.1253204345703125,-1.00042724609375,-0.08184814453125
1768558590959079400,10.310079345703125,0.1296539306640625,-1.00897216796875,-0.0826568603515625
1768558590969108200,10.320108154296875,0.0662994384765625,-1.005706787109375,-0.0967864990234375
1768558590979137500,10.330137451171876,0.030517578125,-0.99700927734375,-0.0810546875
1768558590989166600,10.34016650390625,-0.0338897705078125,-1.0005645751953125,-0.0810546875
1768558590999194400,10.3501943359375,-0.0648956298828125,-0.9903564453125,-0.0990447998046875
1768558591009223400,10.360223388671875,-0.09832763671875,-0.9919281005859375,-0.0614013671875
1768558591019252200,10.370252197265625,-0.06500244140625,-0.998931884765625,-0.02508544921875
1768558591029281300,10.38028125,0.0350189208984375,-1.001800537109375,-0.001068115234375
1768558591039310300,10.390310302734376,0.080413818359375,-1.0110931396484375,0.0288238525390625
1768558591049339400,10.40033935546875,0.0941314697265625,-0.9990997314453125,0.0292205810546875
1768558591059368400,10.410368408203125,0.064117431640625,-1.0098876953125,0.00634765625
1768558591069397500,10.4203974609375,0.0773773193359375,-0.994964599609375,-0.0319671630859375
1768558591079425300,10.43042529296875,0.032379150390625,-1.0202484130859375,-0.06561279296875
1768558591089454300,10.440454345703126,0.0336151123046875,-0.9853668212890625,-0.0899505615234375
1768558591099483400,10.4504833984375,-0.025787353515625,-1.0032196044921875,-0.1431427001953125
1768558591109512400,10.460512451171875,0.0096282958984375,-0.9880523681640625,-0.1425323486328125
1768558591119541500,10.47054150390625,0.019989013671875,-0.9985198974609375,-0.1351776123046875
1768558591129570600,10.480570556640625,0.01226806640625,-1.0052337646484375,-0.1222686767578125
1768558591139598300,10.490598388671875,-0.0010833740234375,-0.994964599609375,-0.0729217529296875
1768558591149627400,10.50062744140625,0.041839599609375,-0.9923553466796875,-0.0526275634765625
1768558591159656200,10.51065625,0.0271759033203125,-1.0169830322265625,-0.0327606201171875
1768558591169685200,10.520685302734375,0.0337371826171875,-0.995849609375,-0.0055084228515625
1768558591179714600,10.530714599609375,-0.0124053955078125,-1.0165557861328125,0.0363311767578125
1768558591189742600,10.54074267578125,-0.029693603515625,-0.992828369140625,0.07586669921875
1768558591199771600,10.550771728515626,-0.161407470703125,-1.0161590576171875,0.0912628173828125
1768558591209800700,10.56080078125,-0.1398773193359375,-0.9887847900390625,0.0979461669921875
1768558591219828500,10.570828369140624,-0.1132659912109375,-1.0054779052734375,0.060760498046875
1768558591229857800,10.58085791015625,-0.081878662109375,-1.0081024169921875,0.0199432373046875
1768558591239886800,10.590886962890625,-0.0170440673828125,-0.9875335693359375,0.0056610107421875
1768558591249915600,10.60091552734375,0.008880615234375,-1.008087158203125,-0.0297393798828125
1768558591259944700,10.61094482421875,0.0572509765625,-1.0010833740234375,-0.0576629638671875
1768558591269973800,10.620973876953125,0.13433837890625,-0.9982757568359375,-0.063629150390625
1768558591280002600,10.63100244140625,0.1723175048828125,-1.0078582763671875,-0.07745361328125
1768558591290030600,10.641030517578125,0.221038818359375,-1.004425048828125,-0.1022491455078125
1768558591300059600,10.6510595703125,0.2349090576171875,-1.0025482177734375,-0.1061248779296875
1768558591310088700,10.661088623046876,0.1928863525390625,-1.0119476318359375,-0.1011962890625
1768558591320117800,10.67111767578125,0.1967620849609375,-0.9971466064453125,-0.083343505859375
1768558591330146600,10.681146484375,0.107666015625,-1.012664794921875,-0.098541259765625
1768558591340175600,10.691175537109375,0.1165771484375,-0.992218017578125,-0.03350830078125
1768558591350204700,10.70120458984375,0.13037109375,-1.0102386474609375,-0.0110931396484375
1768558591360232700,10.711232666015626,0.121551513671875,-1.0189056396484375,0.010284423828125
1768558591370261800,10.72126171875,0.07562255859375,-0.9884033203125,0.0003204345703125
1768558591380290800,10.731290771484375,-0.03509521484375,-1.0116424560546875,-0.0245513916015625
1768558591390319600,10.741319580078125,-0.0660858154296875,-0.9915618896484375,-0.0413360595703125
1768558591400348700,10.7513486328125,-0.034088134765625,-0.9981536865234375,-0.04205322265625
1768558591410377700,10.761377685546876,0.07293701171875,-0.994903564453125,-0.0064239501953125
1768558591420406500,10.771406494140624,0.1503753662109375,-1.0133819580078125,0.0118560791015625
1768558591430434800,10.781434814453124,0.1934051513671875,-1.0175018310546875,0.0229644775390625
1768558591440463600,10.791463623046875,0.0817413330078125,-1.006866455078125,-0.0103302001953125
1768558591450492700,10.80149267578125,-0.0664825439453125,-0.999359130859375,-0.0130767822265625
1768558591460521700,10.811521728515626,-0.147705078125,-0.992431640625,-0.027862548828125
1768558591470550500,10.821550537109376,-0.1457977294921875,-1.0065155029296875,-0.0021820068359375
1768558591480579600,10.83157958984375,-0.127532958984375,-0.9777374267578125,0.0010223388671875
1768558591490608600,10.841608642578125,-0.151641845703125,-1.0024871826171875,0.020782470703125
1768558591500636700,10.85163671875,-0.0776214599609375,-0.99627685546875,0.0135040283203125
1768558591510665700,10.861665771484375,0.0180511474609375,-1.00079345703125,0.008331298828125
1768558591520694800,10.87169482421875,0.008758544921875,-1.0099029541015625,0.001678466796875
1768558591530723600,10.8817236328125,0.0081329345703125,-1.000579833984375,0.0141448974609375
1768558591540752600,10.891752685546875,-0.02777099609375,-0.9991302490234375,-0.013671875
1768558591550781700,10.90178173828125,-0.088409423828125,-1.003173828125,-0.053558349609375
1768558591560810500,10.911810546875,-0.0717620849609375,-0.975677490234375,-0.0507965087890625
1768558591570838800,10.9218388671875,-0.060211181640625,-1.0026397705078125,-0.0716094970703125
1768558591580867600,10.93186767578125,-0.0286407470703125,-0.9924163818359375,-0.0834808349609375
1768558591590896600,10.941896728515625,-0.04443359375,-1.0032806396484375,-0.0885772705078125
1768558591600925700,10.95192578125,-0.0487518310546875,-0.9841766357421875,-0.051605224609375
1768558591610954800,10.961954833984375,-0.103729248046875,-0.9971160888671875,-0.0565032958984375
1768558591620983600,10.971983642578126,-0.10308837890625,-0.986175537109375,-0.0279388427734375
1768558591631012600,10.9820126953125,-0.108795166015625,-1.0047760009765625,-0.015869140625
1768558591641040600,10.99204052734375,-0.1052093505859375,-1.031707763671875,0.0576934814453125
1768558591651069700,11.002069580078125,-0.0697784423828125,-0.950714111328125,-0.0533905029296875
1768558591661098800,11.0120986328125,-0.078369140625,-0.9874114990234375,-0.05426025390625
1768558591671127600,11.02212744140625,-0.282501220703125,-1.138031005859375,-0.1678009033203125
1768558591681156600,11.032156494140626,-0.5010223388671875,-1.26385498046875,-0.0940704345703125
1768558591691185700,11.042185546875,0.8741912841796875,-0.705810546875,0.2073211669921875
1768558591701214500,11.05221435546875,0.0565338134765625,-0.95965576171875,-0.264251708984375
1768558591711243500,11.062243408203125,-0.209625244140625,-1.04583740234375,-0.1324005126953125
1768558591721271800,11.072271728515625,0.1336822509765625,-0.95733642578125,-0.0950775146484375
1768558591731300600,11.082300537109376,0.080322265625,-1.01556396484375,-0.0836029052734375
1768558591741329700,11.09232958984375,0.114990234375,-0.98583984375,-0.09893798828125
1768558591751358700,11.102358642578125,0.0761566162109375,-1.0117950439453125,-0.0936126708984375
1768558591761387500,11.112387451171875,0.106719970703125,-0.9903564453125,-0.0968780517578125
1768558591771416600,11.12241650390625,0.080078125,-1.00982666015625,-0.0727691650390625
1768558591781445600,11.132445556640626,0.0929718017578125,-0.982208251953125,-0.078369140625
1768558591791473700,11.1424736328125,0.035369873046875,-0.99981689453125,-0.09271240234375
1768558591801502700,11.152502685546875,0.0107574462890625,-0.9900054931640625,-0.07110595703125
1768558591811531500,11.162531494140625,-0.0170745849609375,-0.9968414306640625,-0.0423126220703125
1768558591821560600,11.172560546875,-0.0146026611328125,-1.0042572021484375,-0.02508544921875
1768558591831589600,11.182589599609376,0.0247039794921875,-0.991943359375,-0.0096282958984375
1768558591841618400,11.192618408203124,0.029937744140625,-1.0093841552734375,-0.00457763671875
1768558591851647500,11.2026474609375,0.0265350341796875,-0.999908447265625,-0.002899169921875
1768558591861675800,11.21267578125,0.020782470703125,-1.0071868896484375,0.0139617919921875
1768558591871704600,11.22270458984375,0.1287841796875,-0.9910888671875,-0.0084075927734375
1768558591881733600,11.232733642578125,0.0276641845703125,-1.0198974609375,-0.0237274169921875
1768558591891762700,11.2427626953125,0.013214111328125,-1.0016326904296875,0.0069427490234375
1768558591901791500,11.25279150390625,0.068389892578125,-0.987823486328125,-0.0471343994140625
1768558591911820500,11.262820556640625,0.0618896484375,-1.012786865234375,-0.04461669921875
1768558591921849600,11.272849609375,0.067291259765625,-0.9918975830078125,-0.0808868408203125
1768558591931878700,11.282878662109376,0.054107666015625,-1.0012054443359375,-0.0568084716796875
1768558591941906700,11.29290673828125,0.061248779296875,-1.000518798828125,-0.059844970703125
1768558591951935500,11.302935546875,0.031036376953125,-1.0049591064453125,-0.026397705078125
1768558591961964500,11.312964599609375,0.0517730712890625,-1.0116424560546875,-0.0086517333984375
1768558591971993600,11.32299365234375,0.070556640625,-0.9985809326171875,0.00799560546875
1768558591982022700,11.333022705078125,0.02459716796875,-1.006683349609375,-0.0004425048828125
1768558591992051700,11.3430517578125,0.0496673583984375,-1.0065155029296875,-0.0254669189453125
1768558592002080800,11.353080810546874,0.07965087890625,-0.999847412109375,-0.0341339111328125
1768558592012108500,11.363108642578124,0.0567169189453125,-1.001708984375,-0.0652923583984375
1768558592022137600,11.3731376953125,0.028533935546875,-0.9962921142578125,-0.052642822265625
1768558592032166700,11.383166748046875,0.0683135986328125,-0.995697021484375,-0.0433807373046875
1768558592042195500,11.393195556640626,0.020751953125,-1.00616455078125,-0.0608978271484375
1768558592052224500,11.403224609375,0.0050048828125,-0.985382080078125,-0.02862548828125
1768558592062253800,11.41325390625,0.033935546875,-1.000457763671875,-0.0330352783203125
1768558592072282600,11.42328271484375,0.0051422119140625,-1.000335693359375,-0.0306549072265625
1768558592082311700,11.433311767578125,-0.0284881591796875,-1.00274658203125,-0.0008392333984375
1768558592092339700,11.443339599609375,-0.07470703125,-1.0073394775390625,0.0198211669921875
1768558592102368500,11.453368408203126,-0.0518646240234375,-0.9965972900390625,0.044708251953125
1768558592112397600,11.4633974609375,-0.0912628173828125,-1.01556396484375,0.0308074951171875
1768558592122426600,11.473426513671875,-0.08001708984375,-1.0032958984375,0.0552520751953125
1768558592132455700,11.48345556640625,-0.08380126953125,-0.9973602294921875,0.0676116943359375
1768558592142484700,11.493484619140625,-0.1315460205078125,-1.0057525634765625,0.0302581787109375
1768558592152513800,11.503513671875,-0.123199462890625,-0.9998626708984375,0.0329132080078125
1768558592162541600,11.51354150390625,-0.1482696533203125,-0.9915924072265625,0.0154876708984375
1768558592172570600,11.523570556640625,-0.1397857666015625,-1.0030517578125,0.00250244140625
1768558592182599700,11.533599609375,-0.1555633544921875,-0.9891510009765625,-0.0175933837890625
1768558592192628700,11.543628662109375,-0.1433563232421875,-1.0060882568359375,-0.029205322265625
1768558592202657800,11.55365771484375,-0.0972747802734375,-0.9893341064453125,-0.057098388671875
1768558592212686800,11.563686767578124,-0.064422607421875,-0.997650146484375,-0.0601043701171875
1768558592222716000,11.5737158203125,-0.0993194580078125,-0.9917144775390625,-0.06451416015625
1768558592232744700,11.58374462890625,-0.0669403076171875,-1.00592041015625,-0.054931640625
1768558592242772700,11.593772705078125,-0.0317230224609375,-1.00164794921875,-0.05572509765625
1768558592252801500,11.603801513671876,-0.0249786376953125,-0.992218017578125,-0.0586395263671875
1768558592262830800,11.613830810546874,-0.0816192626953125,-1.001678466796875,-0.0968017578125
1768558592272860000,11.62385986328125,-0.038604736328125,-0.9882354736328125,-0.076141357421875
1768558592282889000,11.633888916015625,-0.1001434326171875,-1.0052947998046875,-0.10467529296875
1768558592292917800,11.643917724609375,-0.054962158203125,-0.9889068603515625,-0.1038818359375
1768558592302946800,11.65394677734375,-0.0953521728515625,-0.992462158203125,-0.1209716796875
1768558592312974600,11.663974609375,-0.105438232421875,-0.9929351806640625,-0.095947265625
1768558592323003600,11.674003662109374,-0.094085693359375,-0.9965667724609375,-0.083282470703125
1768558592333033000,11.684032958984375,-0.009033203125,-1.0059814453125,-0.0494842529296875
1768558592343061800,11.694061767578125,-0.0401763916015625,-1.00390625,-0.047760009765625
1768558592353090800,11.7040908203125,-0.0366058349609375,-1.0001068115234375,-0.0373077392578125
1768558592363119900,11.714119873046876,-0.004241943359375,-1.0013580322265625,-0.03875732421875
1768558592373148700,11.724148681640624,0.0162353515625,-0.9916534423828125,-0.0561981201171875
1768558592383177700,11.734177734375,0.0243377685546875,-0.9979400634765625,-0.0377655029296875
1768558592393205800,11.744205810546875,0.00640869140625,-0.99346923828125,-0.02081298828125
1768558592403234800,11.75423486328125,-0.019317626953125,-1.0077667236328125,-0.050201416015625
1768558592413264000,11.764263916015626,0.04071044921875,-0.9984588623046875,-0.0331268310546875
1768558592423293000,11.77429296875,0.0170135498046875,-0.988739013671875,-0.0275115966796875
1768558592433321700,11.78432177734375,0.0045623779296875,-1.0107879638671875,0.00006103515625
1768558592443350800,11.794350830078125,-0.0074005126953125,-0.994140625,-0.0228424072265625
1768558592453379800,11.8043798828125,-0.0165863037109375,-0.999298095703125,-0.02020263671875
1768558592463407900,11.814407958984376,-0.0357666015625,-0.9915008544921875,-0.0073394775390625
1768558592473437000,11.82443701171875,-0.1024932861328125,-1.0034332275390625,0.035736083984375
1768558592483465700,11.8344658203125,-0.1416168212890625,-0.9593658447265625,0.02032470703125
1768558592493494800,11.844494873046875,0.0030517578125,-0.7889556884765625,0.11651611328125
1768558592503523800,11.85452392578125,-0.8423309326171875,-1.6114959716796875,-0.304779052734375
1768558592513552600,11.864552734375,0.413055419921875,-0.7879486083984375,0.3432769775390625
1768558592523581700,11.874581787109374,0.2092132568359375,-0.87762451171875,-0.0638885498046875
1768558592533610800,11.88461083984375,-0.1680908203125,-1.107574462890625,-0.05975341796875
1768558592543638800,11.894638671875,0.0560150146484375,-0.959197998046875,-0.018218994140625
1768558592553667800,11.904667724609375,0.06414794921875,-1.0051116943359375,-0.082855224609375
1768558592563697000,11.91469677734375,0.10296630859375,-0.9969329833984375,-0.0649871826171875
1768558592573725700,11.9247255859375,0.0997314453125,-1.008514404296875,-0.059600830078125
1768558592583754800,11.934754638671874,0.0706024169921875,-0.9897308349609375,-0.047210693359375
1768558592593783800,11.94478369140625,0.0057220458984375,-0.99365234375,0.0056304931640625
1768558592603812600,11.9548125,-0.0424346923828125,-1.0149688720703125,0.0196990966796875
1768558592613841700,11.964841552734375,0.0216827392578125,-0.9859466552734375,0.0211334228515625
1768558592623869700,11.97486962890625,-0.04168701171875,-0.99822998046875,0.001007080078125
1768558592633898800,11.984898681640624,-0.009002685546875,-0.996826171875,-0.01422119140625
1768558592643927800,11.994927734375,0.0223846435546875,-0.9982147216796875,-0.081787109375
1768558592653956900,12.004956787109375,-0.007110595703125,-0.99310302734375,-0.088897705078125
1768558592663985700,12.014985595703125,-0.0832366943359375,-1.0081024169921875,-0.0763397216796875
1768558592674014700,12.0250146484375,-0.0353240966796875,-0.99237060546875,-0.0715789794921875
1768558592684043800,12.035043701171874,0.015045166015625,-0.9764404296875,-0.097503662109375
1768558592694071800,12.04507177734375,-0.0839080810546875,-1.0264892578125,0.0311126708984375
1768558592704100900,12.055100830078125,-0.050628662109375,-0.9832916259765625,-0.0329437255859375
1768558592714129700,12.065129638671875,-0.005584716796875,-1.0030975341796875,-0.0292510986328125
1768558592724158700,12.07515869140625,-0.001983642578125,-0.9947509765625,-0.0309600830078125
1768558592734187800,12.085187744140624,0.0414581298828125,-0.9986572265625,-0.04742431640625
1768558592744216600,12.095216552734374,0.108062744140625,-0.979034423828125,-0.0862579345703125
1768558592754245600,12.10524560546875,0.12945556640625,-0.99993896484375,-0.08953857421875
1768558592764275000,12.11527490234375,0.06048583984375,-1.0283355712890625,-0.1516265869140625
1768558592774302700,12.125302734375,0.0767364501953125,-1.004302978515625,-0.1514434814453125
1768558592784331800,12.135331787109376,0.010498046875,-0.9500579833984375,-0.06549072265625
1768558592794360800,12.14536083984375,-0.0898284912109375,-0.995452880859375,-0.027069091796875
1768558592804389600,12.1553896484375,-0.1833038330078125,-1.0829620361328125,-0.0775299072265625
1768558592814418700,12.165418701171875,0.066436767578125,-0.97064208984375,-0.0503387451171875
1768558592824447700,12.17544775390625,-0.0237884521484375,-1.01318359375,-0.0365447998046875
1768558592834476800,12.185476806640626,0.030609130859375,-0.988983154296875,-0.06817626953125
1768558592844505900,12.195505859375,0.0540313720703125,-0.9685211181640625,-0.0534515380859375
1768558592854533600,12.20553369140625,0.0066070556640625,-1.0365447998046875,-0.0821685791015625
1768558592864562700,12.215562744140625,0.1229400634765625,-1.0072174072265625,-0.074859619140625
1768558592874591700,12.225591796875,0.1243743896484375,-0.9805908203125,-0.0464630126953125
1768558592884620500,12.23562060546875,0.04205322265625,-0.9994049072265625,-0.039031982421875
1768558592894649900,12.24564990234375,-0.0540771484375,-1.0200042724609375,-0.0071868896484375
1768558592904679000,12.255678955078125,-0.08843994140625,-0.998565673828125,0.026641845703125
1768558592914707700,12.265707763671875,-0.1937713623046875,-0.990570068359375,0.014068603515625
1768558592924736800,12.27573681640625,-0.196380615234375,-0.99945068359375,0.0526275634765625
1768558592934764800,12.285764892578126,-0.2606048583984375,-1.0000762939453125,0.0757293701171875
1768558592944793600,12.295793701171876,-0.2298126220703125,-1.009429931640625,0.09375
1768558592954822700,12.30582275390625,-0.1747283935546875,-0.9820556640625,0.0675811767578125
1768558592964852000,12.31585205078125,-0.341827392578125,-1.017730712890625,0.0988311767578125
1768558592974880800,12.325880859375,0.092559814453125,-0.96868896484375,0.0400238037109375
1768558592984909800,12.335909912109376,0.07830810546875,-0.996002197265625,-0.10247802734375
1768558592994939000,12.34593896484375,-0.049713134765625,-1.0224761962890625,0.0268707275390625
1768558593004967700,12.3559677734375,-0.15069580078125,-0.9923553466796875,0.0346221923828125
1768558593014995700,12.36599560546875,-0.0642547607421875,-0.99884033203125,0.0362701416015625
1768558593025024800,12.376024658203125,-0.0633697509765625,-1.0117645263671875,0.0205078125
1768558593035053800,12.3860537109375,-0.0259246826171875,-0.9835662841796875,0.01934814453125
1768558593045083000,12.396082763671876,-0.06591796875,-1.00396728515625,0.011260986328125
1768558593055112000,12.40611181640625,-0.026123046875,-1.0043182373046875,0.0108184814453125
1768558593065140700,12.416140625,-0.065948486328125,-1.0150299072265625,0.0334930419921875
1768558593075169800,12.426169677734375,-0.0519866943359375,-0.9887542724609375,-0.003326416015625
1768558593085198800,12.43619873046875,-0.062286376953125,-1.00347900390625,-0.0020599365234375
1768558593095227000,12.446226806640626,-0.1225433349609375,-1.014190673828125,0.0226287841796875
1768558593105256000,12.456255859375,-0.1065826416015625,-0.9960174560546875,-0.0301513671875
1768558593115284700,12.46628466796875,-0.0805511474609375,-0.994903564453125,-0.0378265380859375
1768558593125313800,12.476313720703125,-0.1024932861328125,-1.0159759521484375,-0.07586669921875
1768558593135342800,12.4863427734375,-0.0136566162109375,-0.9826507568359375,-0.0527496337890625
1768558593145371600,12.49637158203125,-0.0644378662109375,-1.0077362060546875,-0.07244873046875
1768558593155400700,12.506400634765624,-0.00750732421875,-0.995147705078125,-0.070831298828125
1768558593165429000,12.516428955078124,-0.0157928466796875,-0.9937744140625,-0.0577545166015625
1768558593175457800,12.526457763671875,-0.053680419921875,-1.0104522705078125,-0.0522003173828125
1768558593185486800,12.53648681640625,-0.0565185546875,-0.9996185302734375,-0.030181884765625
1768558593195516000,12.546515869140626,-0.080718994140625,-1.004364013671875,-0.0136566162109375
1768558593205544700,12.556544677734376,-0.0517730712890625,-0.999603271484375,-0.00543212890625
1768558593215573800,12.56657373046875,-0.0977020263671875,-0.9980926513671875,0.001983642578125
1768558593225602800,12.576602783203125,-0.138702392578125,-1.004058837890625,0.0048675537109375
1768558593235631600,12.586631591796875,-0.115081787109375,-0.9987640380859375,-0.006866455078125
1768558593245660000,12.596659912109375,-0.094879150390625,-0.998748779296875,-0.0097808837890625
1768558593255688700,12.606688720703126,-0.0565032958984375,-1.0008544921875,-0.017333984375
1768558593265717800,12.6167177734375,-0.087493896484375,-1.0001220703125,-0.0175628662109375
1768558593275746800,12.626746826171875,-0.111663818359375,-0.9966583251953125,-0.0195770263671875
1768558593285775600,12.636775634765625,-0.0829315185546875,-1.0022430419921875,-0.0380706787109375
1768558593295804700,12.6468046875,-0.0568695068359375,-0.9959564208984375,-0.041961669921875
1768558593305833700,12.656833740234376,-0.0846405029296875,-1.00244140625,-0.045867919921875
1768558593315862500,12.666862548828124,-0.0648040771484375,-1.00372314453125,-0.0404815673828125
1768558593325891800,12.676891845703125,-0.041717529296875,-0.9812469482421875,-0.0459747314453125
1768558593335919900,12.686919921875,-0.0894622802734375,-1.005157470703125,-0.02618408203125
1768558593345948700,12.69694873046875,-0.0568695068359375,-1.0008697509765625,-0.024688720703125
1768558593355977700,12.706977783203126,-0.0339508056640625,-0.9938201904296875,-0.0404510498046875
1768558593366006800,12.7170068359375,-0.0327606201171875,-1,-0.0348663330078125
1768558593376035600,12.72703564453125,-0.0272369384765625,-1.00537109375,-0.0479583740234375
1768558593386064600,12.737064697265625,-0.0126495361328125,-0.990814208984375,-0.05072021484375
1768558593396094000,12.747093994140625,-0.01934814453125,-0.9920501708984375,-0.0596923828125
1768558593406122800,12.757122802734376,-0.0702972412109375,-0.9968109130859375,-0.0784454345703125
1768558593416150800,12.76715087890625,-0.024383544921875,-0.990570068359375,-0.0872955322265625
1768558593426179800,12.777179931640624,-0.0389862060546875,-0.9935150146484375,-0.0948333740234375
1768558593436208600,12.787208740234375,-0.081329345703125,-1.0137939453125,-0.0514984130859375
1768558593446237700,12.79723779296875,-0.0773773193359375,-1.0001373291015625,-0.030731201171875
1768558593456267000,12.80726708984375,-0.08551025390625,-0.991729736328125,-0.0243988037109375
1768558593466295800,12.8172958984375,-0.072998046875,-0.9923553466796875,0.0048065185546875
1768558593476324900,12.827324951171875,-0.0953826904296875,-1.005767822265625,0.00579833984375
1768558593486354000,12.83735400390625,-0.04473876953125,-0.9947357177734375,-0.039306640625
1768558593496381700,12.847381591796875,-0.0034332275390625,-1.0006866455078125,-0.060638427734375
1768558593506410800,12.85741064453125,0.01165771484375,-1.002655029296875,-0.0701446533203125
1768558593516439600,12.867439453125,0.01397705078125,-0.993499755859375,-0.068817138671875
1768558593526468900,12.87746875,-0.0220947265625,-0.996124267578125,-0.0308380126953125
1768558593536498000,12.887497802734375,-0.0338592529296875,-1.0012664794921875,0.0001983642578125
1768558593546526700,12.897526611328125,-0.022308349609375,-1.0152740478515625,0.0169677734375
