time,seconds_elapsed,z,y,x
1768558580713441300,0.064441162109375,0.0015073491958901286,-0.0014181332662701607,-0.02178838662803173
1768558580723470300,0.07447021484375,0.010411095805466175,-0.002466619713231921,-0.01931670680642128
1768558580733498400,0.084498291015625,0.021561484783887863,-0.004776645917445421,-0.01684529334306717
1768558580743527400,0.09452734375,0.02809741534292698,-0.001987783471122384,-0.01919606514275074
1768558580753556500,0.104556396484375,0.029652966186404228,-0.0010391654213890433,-0.021521536633372307
1768558580763584300,0.114584228515625,0.020856546238064766,-0.00250550196506083,-0.019338544458150864
1768558580773613600,0.124613525390625,0.0024985778145492077,-0.006676544900983572,-0.01173228956758976
1768558580783642600,0.134642578125,-0.007791344076395035,-0.00016165387933142483,-0.008797752670943737
1768558580793670400,0.14467041015625,-0.008984972722828388,-0.00003355582884978503,-0.009336776100099087
1768558580803699500,0.154699462890625,-0.028586370870471,0.001199221471324563,0.0018213358707726002
1768558580813728300,0.164728271484375,-0.03753592446446419,-0.0004772384709212929,0.005320463329553604
1768558580823757300,0.17475732421875,-0.029019666835665703,0.0009861685102805495,0.003299922915175557
1768558580833785600,0.18478564453125,-0.014871357940137386,0.00096113485051319,-0.0022218753583729267
1768558580843814400,0.194814453125,-0.01296533364802599,-0.0014836470363661647,-0.0009081379394046962
1768558580853843500,0.204843505859375,-0.005474660079926252,-0.000004793690095539205,-0.005319930613040924
1768558580863871200,0.214871337890625,0.008248874917626381,0.21651525795459747,0.06774229556322098
1768558580873900300,0.224900390625,0.053947120904922485,0.15734247863292694,-0.08389889448881149
1768558580883929600,0.2349296875,0.07691901922225952,0.1559925228357315,0.019785689190030098
1768558580893957400,0.244957275390625,0.010832141153514385,0.1330115795135498,0.010265421122312546
1768558580903986400,0.254986328125,0.02220490388572216,0.005631786771118641,-0.011035607196390629
1768558580914015500,0.265015380859375,0.026083799079060555,0.007770305033773184,-0.010085657238960266
1768558580924044300,0.275044189453125,0.029820213094353676,0.006001166999340057,-0.006674946751445532
1768558580934072600,0.285072509765625,0.03353239223361015,0.004627508576959372,-0.012051869183778763
1768558580944101400,0.295101318359375,0.05366029962897301,-0.011727229692041874,-0.0037864823825657368
1768558580954130400,0.30513037109375,0.020793695002794266,-0.13779035210609436,-0.013672934845089912
1768558580964158500,0.315158447265625,-0.02243979461491108,-0.11339633166790009,0.05188477039337158
1768558580974187300,0.325187255859375,-0.005331382155418396,0.0046845003962516785,0.008218514733016491
1768558580984216600,0.335216552734375,0.03939640894532204,0.013933924958109856,-0.023805996403098106
1768558580994244400,0.345244384765625,0.010783405043184757,-0.008421448059380054,0.008668589405715466
1768558581004273400,0.3552734375,-0.016756342723965645,0.0006383596919476986,0.00256382510997355
1768558581014302500,0.365302490234375,0.006440588738769293,0.00971734244376421,-0.01104466151446104
1768558581024331300,0.375331298828125,0.00044581317342817783,-0.00603472301736474,0.008785768412053585
1768558581034359600,0.385359619140625,-0.03177337720990181,-0.008851815015077591,0.00974290817975998
1768558581044388600,0.395388671875,-0.038658712059259415,-0.03129267692565918,0.03159894049167633
1768558581054417400,0.40541748046875,-0.03074592910706997,-0.0004516721237450838,0.0051739891059696674
1768558581064445400,0.415445556640625,-0.014722486957907677,-0.004118045791983604,-0.014995194971561432
1768558581074474200,0.42547412109375,-0.023603063076734543,-0.029092904180288315,0.009299492463469505
1768558581084503300,0.43550341796875,-0.032524120062589645,-0.055205997079610825,-0.0029854036401957273
1768558581094531600,0.445531494140625,-0.0318940170109272,-0.07915926724672318,-0.006767092272639275
1768558581104560400,0.455560302734375,-0.04068164899945259,-0.08750162273645401,-0.005431517027318478
1768558581114589400,0.46558935546875,-0.04634912312030792,-0.09818755090236664,-0.005126318894326687
1768558581124618500,0.475618408203125,-0.048953160643577576,-0.10886416584253311,-0.005997438915073872
1768558581134646500,0.485646484375,-0.04946501925587654,-0.12489532679319382,-0.0031065773218870163
1768558581144675600,0.495675537109375,-0.04376505687832832,-0.131893590092659,-0.003992611076682806
1768558581154704400,0.505704345703125,-0.0346679650247097,-0.1366201639175415,-0.012487562373280525
1768558581164732400,0.515732421875,-0.04151761531829834,-0.07353600114583969,-0.014153902418911457
1768558581174762500,0.525762451171875,0.0018788601737469435,-0.07703299820423126,0.0020101540721952915
1768558581184791300,0.535791259765625,0.00845420453697443,-0.08411407470703125,-0.023066969588398933
1768558581194819300,0.5458193359375,-0.0030921963043510914,-0.10734270513057709,0.01992630399763584
1768558581204848600,0.5558486328125,0.022891467437148094,-0.03579528257250786,-0.06566876173019409
1768558581214877400,0.56587744140625,-0.02268294245004654,-0.04363935440778732,0.08567735552787781
1768558581224906500,0.575906494140625,0.016586966812610626,0.010362892411649227,-0.031023696064949036
1768558581234934300,0.585934326171875,0.027461718767881393,-0.01028486154973507,0.010979413986206055
1768558581244963300,0.59596337890625,0.027691548690199852,-0.0056831855326890945,-0.007369232829660177
1768558581254992400,0.605992431640625,0.0142369931563735,-0.0039854203350842,-0.0028493159916251898
1768558581265020400,0.6160205078125,0.010059824213385582,0.00019627496658358723,-0.010786334984004498
1768558581275049500,0.626049560546875,-0.001246625673957169,-0.002983805723488331,-0.004561728797852993
1768558581285078500,0.63607861328125,-0.015621037222445011,0.0000399474156438373,-0.00606508320197463
1768558581295106300,0.646106201171875,-0.01363298762589693,0.00785499345511198,-0.020476512610912323
1768558581305135600,0.656135498046875,-0.010753045789897442,0.01257837563753128,-0.03201599046587944
1768558581315164400,0.666164306640625,-0.01007766742259264,0.02002643793821335,-0.04224119707942009
1768558581325192400,0.6761923828125,-0.0100774010643363,0.017100157216191292,-0.03808347135782242
1768558581335221500,0.686221435546875,-0.02195669710636139,0.008992962539196014,-0.024640098214149475
1768558581345250300,0.696250244140625,-0.028059331700205803,0.0013432984706014395,-0.01335814967751503
1768558581355279400,0.706279296875,-0.02635437622666359,-0.004944424610584974,-0.0036586506757885218
1768558581365307400,0.716307373046875,-0.02924124151468277,-0.005371063016355038,0.006422745529562235
1768558581375336400,0.72633642578125,-0.02760899066925049,-0.0031997880432754755,0.004411792848259211
1768558581385365500,0.736365478515625,-0.02213672734797001,-0.004413124173879623,0.001790975802578032
1768558581395393300,0.746393310546875,-0.019755860790610313,-0.0015608787070959806,-0.0002724413643591106
1768558581405422300,0.75642236328125,-0.009416671469807625,-0.001300155185163021,-0.004608866758644581
1768558581415451600,0.76645166015625,-0.004713795147836208,-0.0011198592837899923,-0.005336175672709942
1768558581425479400,0.7764794921875,-0.00404667342081666,-0.004019509069621563,0.0036189695820212364
1768558581435508500,0.786508544921875,-0.001901230658404529,-0.00441019469872117,0.004884237423539162
1768558581445537300,0.796537353515625,0.0020847225096076727,-0.0028154938481748104,0.005680788774043322
1768558581455566300,0.80656640625,0.0017084177816286683,-0.00493217445909977,0.007452589925378561
1768558581465594600,0.8165947265625,0.0008554073283448815,-0.002928145695477724,0.006246977020055056
1768558581475623400,0.82662353515625,0.002584597794339061,-0.0027686222456395626,0.009238772094249725
1768558581485652500,0.836652587890625,-0.0031169636640697718,-0.003964914008975029,0.008783637546002865
1768558581495680300,0.84668017578125,-0.008125570602715015,-0.0022892532870173454,0.0075761605985462666
1768558581505709300,0.856709228515625,-0.01104652602225542,0.0021819279063493013,-0.00037950044497847557
1768558581515738400,0.86673828125,-0.01128088403493166,0.0021976404823362827,-0.0013640711549669504
1768558581525766400,0.876766357421875,-0.004335093777626753,0.003519633784890175,-0.005664543714374304
1768558581535795500,0.88679541015625,0.001406947965733707,0.0037326866295188665,-0.0063005066476762295
1768558581545824500,0.896824462890625,0.003995806910097599,0.0051718587055802345,-0.003379817819222808
1768558581555852300,0.906852294921875,0.00538384635001421,-0.0009896307019516826,0.000603738590143621
1768558581565881600,0.916881591796875,0.007674963679164648,0.0005936186062172055,-0.00013981595111545175
1768558581575910400,0.926910400390625,0.0017797905020415783,-0.002373941708356142,0.005603291094303131
1768558581585938400,0.9369384765625,-0.00040959418402053416,-0.0009720537927933037,0.010054231621325016
1768558581595967500,0.946967529296875,-0.0005360943032428622,0.008562062866985798,0.0007462177309207618
1768558581605996300,0.956996337890625,0.003706587478518486,0.018497250974178314,0.007072024047374725
1768558581616025300,0.967025390625,-0.002104163635522127,0.03422961011528969,0.02876640111207962
1768558581626053400,0.977053466796875,-0.01281912624835968,0.02869662642478943,0.0011012171162292361
1768558581636082400,0.98708251953125,-0.010667025111615658,0.017296964302659035,-0.02443290501832962
1768558581646111500,0.997111572265625,-0.000624777574557811,0.009457684122025967,-0.0170932337641716
1768558581656139300,1.00713916015625,0.010307231917977333,-0.0006564692012034357,-0.022420354187488556
1768558581673690600,1.024690673828125,0.013760020956397057,-0.023734889924526215,-0.014244715683162212
1768558581683718400,1.034718505859375,0.0013765880139544606,-0.0034109766129404306,-0.008064850233495235
1768558581693747500,1.04474755859375,0.006898385938256979,0.019056782126426697,-0.017644241452217102
1768558581703776300,1.0547763671875,0.0031521173659712076,0.028082234784960747,-0.018443455919623375
1768558581713804500,1.064804443359375,-0.005567604675889015,0.08156516402959824,-0.007120760157704353
1768558581723833300,1.074833251953125,0.0261213481426239,0.11376891285181046,-0.03394917771220207
1768558581733862400,1.0848623046875,0.04541675001382828,0.12840378284454346,-0.04728629067540169
1768558581743890400,1.094890380859375,0.051417652517557144,0.10758291929960251,-0.06391586363315582
1768558581753919500,1.10491943359375,0.0322631299495697,0.03369671106338501,-0.06555291265249252
1768558581763948500,1.114948486328125,-0.0019302591681480408,0.007933024317026138,-0.011159177869558334
1768558581773976300,1.124976318359375,-0.024349281564354897,0.007050985470414162,0.012525645084679127
1768558581784005400,1.13500537109375,-0.02984711155295372,0.012007128447294235,0.004927114117890596
1768558581794034400,1.145034423828125,-0.010260893031954765,-0.024762071669101715,-0.009850766509771347
1768558581804063200,1.155063232421875,-0.03358778730034828,-0.016536632552742958,0.026750653982162476
1768558581814091500,1.165091552734375,-0.010670754127204418,-0.007678425870835781,0.005468801129609346
1768558581824120600,1.17512060546875,0.006105829495936632,-0.009517605416476727,0.0015193333383649588
1768558581834149400,1.1851494140625,-0.00035899411886930466,-0.008866195566952229,0.008648082613945007
1768558581844177400,1.195177490234375,0.010761034674942493,-0.007381749805063009,0.004522846546024084
1768558581854206200,1.205206298828125,0.008267517201602459,-0.0073356772772967815,0.003625627374276519
1768558581864235500,1.215235595703125,-0.0008018778171390295,-0.00824754312634468,0.010922688990831375
1768558581874263600,1.225263671875,0.0004756405542138964,-0.004441886208951473,0.0031499869655817747
1768558581884292400,1.235292236328125,0.003222158644348383,-0.0024892566725611687,-0.0018186726374551654
1768558581894321400,1.2453212890625,0.006871222052723169,-0.0019797938875854015,-0.006616090890020132
1768558581904349400,1.255349365234375,0.014631140977144241,-0.0012684636749327183,-0.011111240833997726
1768558581914378500,1.26537841796875,0.01613502763211727,0.0007946872501634061,-0.013236976228654385
1768558581924407600,1.275407470703125,0.016692960634827614,0.002424808219075203,-0.012795424088835716
1768558581934435300,1.285435302734375,0.019888486713171005,0.0015387744642794132,-0.009488842450082302
1768558581944464400,1.29546435546875,0.02454316057264805,0.002671416848897934,-0.011472098529338837
1768558581954493400,1.305493408203125,0.02215137518942356,0.0009744506096467376,-0.0163629949092865
1768558581964522200,1.315522216796875,0.013337376527488232,-0.001537975505925715,-0.011149589903652668
1768558581974550500,1.325550537109375,0.004673315212130547,-0.004580636974424124,-0.011518970131874084
1768558581984579300,1.335579345703125,-0.0029137644451111555,-0.00806112214922905,0.0012189288390800357
1768558581994608400,1.3456083984375,-0.01811801828444004,-0.007591873407363892,0.00663420045748353
1768558582004636400,1.355636474609375,-0.029567213729023933,-0.005693039391189814,0.008522115647792816
1768558582014665500,1.36566552734375,-0.03353798761963844,-0.003184075467288494,0.0037617150228470564
1768558582024694500,1.375694580078125,-0.02804947830736637,-0.0009816411184147,-0.00027084347675554454
1768558582034722300,1.385722412109375,-0.021821675822138786,0.0014226606581360102,-0.006654706783592701
1768558582044751400,1.39575146484375,-0.020794760435819626,-0.001669003046117723,-0.005307946354150772
1768558582054780400,1.405780517578125,-0.017964620143175125,0.0016085492679849267,-0.005475192796438932
1768558582064808400,1.415808349609375,-0.010567955672740936,0.00008149272616719827,-0.006304234731942415
1768558582074837500,1.42583740234375,-0.010154899209737778,-0.0018394453218206763,-0.0011733887949958444
1768558582084866600,1.435866455078125,-0.006156429648399353,-0.0029356025625020266,-0.00529729388654232
1768558582094894300,1.445894287109375,0.0004913532175123692,-0.002740659052506089,-0.006189186125993729
1768558582104923400,1.45592333984375,0.008646485395729542,-0.000794420950114727,-0.004354268312454224
1768558582114952400,1.465952392578125,0.00911227148026228,-0.003266367129981518,-0.0012679309584200382
1768558582124980500,1.47598046875,-0.0013054815353825688,-0.0024058998096734285,0.0036767602432519197
1768558582135009500,1.486009521484375,-0.005832322873175144,-0.003891411004588008,-0.00008894957863958552
1768558582145038300,1.496038330078125,-0.0026847326662391424,-0.000854075769893825,-0.0044043357484042645
1768558582155067400,1.5060673828125,-0.003035471076145768,-0.0017398431664332747,0.0012980246683582664
1768558582165095400,1.516095458984375,-0.00008628641808172688,-0.0030655646696686745,0.003919374197721481
1768558582180137700,1.5311376953125,-0.005394499283283949,-0.0031278827227652073,0.0021406488958746195
1768558582190166800,1.541166748046875,-0.007291735149919987,-0.003829892026260495,-0.004261324182152748
1768558582200195600,1.551195556640625,-0.006985471583902836,-0.0015267902053892612,-0.006323942448943853
1768558582210223600,1.5612236328125,-0.00797430332750082,-0.003139334265142679,-0.0046727824956178665
1768558582220252700,1.571252685546875,-0.00492098880931735,-0.001511610229499638,-0.00526799913495779
1768558582230281500,1.581281494140625,-0.00048602689639665186,-0.0010492854053154588,-0.005594768561422825
1768558582240309800,1.591309814453125,-0.004456533584743738,-0.00027297402266412973,-0.0054885088466107845
1768558582250338600,1.601338623046875,-0.0007627293234691024,0.00006764429417671636,-0.004905276466161013
1768558582260367600,1.61136767578125,0.004066380672156811,-0.0002657834847923368,-0.005647233221679926
1768558582270395600,1.621395751953125,-0.00012996226723771542,-0.0003909520455636084,-0.004884503781795502
1768558582280424700,1.6314248046875,0.00021678130724467337,-0.002703641075640917,-0.001279382617212832
1768558582290453800,1.641453857421875,0.0015398397808894515,-0.004427505191415548,0.0012205267557874322
1768558582300481500,1.6514814453125,-0.00010120012302650139,-0.0029915287159383297,0.001241033081896603
1768558582310510600,1.661510498046875,-0.001847434788942337,-0.004163319710642099,-0.0010351707460358739
1768558582320539600,1.67153955078125,-0.003338272450491786,-0.0013739247806370258,-0.006469350773841143
1768558582330568400,1.681568359375,-0.008736499585211277,-0.001835716888308525,-0.0044394894503057
1768558582340596700,1.6915966796875,-0.012057461775839329,0.0008860336965881288,-0.008440623059868813
1768558582350625800,1.701625732421875,-0.012570653110742569,0.0004543352697510272,-0.008749815635383129
1768558582360654600,1.711654541015625,-0.012506471015512943,-0.0026232136879116297,-0.006392918061465025
1768558582370682600,1.7216826171875,-0.012300075963139534,-0.002418150193989277,-0.006508765742182732
1768558582380711700,1.731711669921875,-0.011719772592186928,-0.001895105466246605,-0.005819539539515972
1768558582390740700,1.74174072265625,-0.0070832096971571445,-0.0014064153656363487,-0.006491188891232014
1768558582400768800,1.751768798828125,-0.005380650516599417,-0.002120941411703825,-0.0013587448047474027
1768558582410797600,1.761797607421875,-0.0019145464757457376,-0.0020572920329868793,-0.0004964132094755769
1768558582420826600,1.77182666015625,0.0008423578692600131,-0.0014759238110855222,-0.0014008227735757828
1768558582430854700,1.781854736328125,0.0009898969437927008,-0.0019294602097943425,-0.0024229439441114664
1768558582440883700,1.7918837890625,-0.0005717806634493172,-0.0010349043877795339,-0.003066896228119731
1768558582450912800,1.801912841796875,0.000005858954409632133,-0.002373675350099802,-0.004797684494405985
1768558582460940500,1.8119404296875,0.0008202536264434457,-0.0010841728653758764,-0.0037529265973716974
1768558582470969600,1.821969482421875,0.0018884475575760007,-0.0027750139124691486,-0.0036799560766667128
1768558582480998700,1.83199853515625,0.002642654813826084,-0.0035214978270232677,-0.003510312642902136
1768558582491026700,1.842026611328125,-0.001070857048034668,-0.0031968585681170225,-0.002046905690804124
1768558582501055700,1.8520556640625,-0.005441104527562857,-0.0031678301747888327,0.0005667206714861095
1768558582511084500,1.86208447265625,-0.006500243674963713,-0.002481267089024186,-0.001889246515929699
1768558582521113600,1.872113525390625,-0.007456851191818714,-0.004177434369921684,-0.0018410432385280728
1768558582531141600,1.8821416015625,-0.004785700235515833,-0.0021872541401535273,-0.004019775427877903
1768558582541170700,1.892170654296875,-0.005548962391912937,-0.0007454187725670636,-0.0033694314770400524
1768558582551199700,1.90219970703125,-0.006120210513472557,-0.0019065570086240768,-0.001407480682246387
1768558582561227500,1.9122275390625,-0.0041185785084962845,-0.0031401331070810556,-0.0011052117915824056
1768558582571256600,1.922256591796875,-0.004493285436183214,-0.0026261431630700827,-0.001868473831564188
1768558582581285600,1.93228564453125,-0.0037766287568956614,-0.0029502499382942915,-0.00589517317712307
1768558582591313700,1.942313720703125,-0.004001932218670845,-0.003881823504343629,-0.005056543741375208
1768558582601342700,1.9523427734375,-0.004120708908885717,-0.0016615461790934205,-0.00743208359926939
1768558582611371800,1.962371826171875,-0.00003968110104324296,-0.0016911072889342904,-0.007499195169657469
1768558582621399600,1.972399658203125,-0.0047060721553862095,-0.002245843643322587,-0.0023126890882849693
1768558582631428600,1.9824287109375,-0.004278101958334446,-0.0017251957906410098,-0.003522030543535948
1768558582641457700,1.992457763671875,-0.0038962047547101974,-0.003364105010405183,-0.0009688580175861716
1768558582651486700,2.00248681640625,-0.008774316869676113,-0.001924666459672153,-0.00046924897469580173
1768558582661514800,2.0125146484375,-0.007367368787527084,-0.001995772821828723,-0.0027595674619078636
1768558582671543600,2.02254345703125,-0.0070403325371444225,-0.0015563513152301311,-0.0028533106669783592
1768558582681572600,2.032572509765625,-0.006644587032496929,-0.0026972496416419744,-0.0017092167399823666
1768558582691600600,2.0426005859375,-0.005007275380194187,-0.002683933824300766,-0.0012253203894942999
1768558582701629700,2.052629638671875,-0.004718322306871414,-0.001933987601660192,-0.0007267766632139683
1768558582711658800,2.06265869140625,-0.004609665367752314,-0.0010498181218281388,0.0011824434623122215
1768558582721686500,2.0726865234375,-0.004568919073790312,-0.0021840583067387342,0.002213885774835944
1768558582731715600,2.082715576171875,-0.003448527306318283,-0.0003632551815826446,0.0006593986763618886
1768558582741744600,2.09274462890625,-0.0006106628570705652,0.0006202502408996224,-0.001172323478385806
1768558582751772700,2.102772705078125,0.0025837989524006844,-0.0023821976501494646,0.0011883024126291275
1768558582761801700,2.1128017578125,-0.004462658893316984,-0.0016884441720321774,0.0052139367908239365
1768558582771830500,2.12283056640625,-0.007994011044502258,-0.003230947069823742,0.008627576753497124
1768558582781858600,2.132858642578125,-0.011530156247317791,-0.003751328680664301,0.011263573542237282
1768558582791888000,2.142887939453125,-0.010467021726071835,-0.002838130807504058,0.011060906574130058
1768558582801916700,2.152916748046875,-0.0056893108412623405,-0.00028868665685877204,0.006444317288696766
1768558582811945700,2.16294580078125,-0.003913515247404575,-0.004187021870166063,0.003997670952230692
1768558582821973500,2.172973388671875,-0.015477759763598442,-0.003123355330899358,0.004751878324896097
1768558582832002600,2.18300244140625,-0.0213585514575243,-0.0023936491925269365,0.0022122878581285477
1768558582842031600,2.193031494140625,-0.030066022649407387,0.001710548298433423,0.0013733921805396676
1768558582852059600,2.2030595703125,-0.03237498551607132,0.009246495552361012,-0.006158826407045126
1768558582862088700,2.213088623046875,-0.02762497030198574,0.018337994813919067,-0.01703730598092079
1768558582872117800,2.22311767578125,-0.00818043202161789,0.10760822147130966,-0.0002479403046891093
1768558582882145500,2.2331455078125,0.02111673727631569,0.22101999819278717,-0.022065354511141777
1768558582892174800,2.2431748046875,0.03603576496243477,0.15437199175357819,-0.0041276332922279835
1768558582902203600,2.25320361328125,0.019036274403333664,0.03657824918627739,-0.013109942898154259
1768558582912232700,2.263232666015625,-0.011231881566345692,-0.030547255650162697,0.026081668213009834
1768558582922260700,2.2732607421875,0.005973736755549908,-0.029802104458212852,0.007763114292174578
1768558582932289500,2.28328955078125,0.009583651088178158,-0.019897008314728737,0.0008122641011141241
1768558582942318600,2.293318603515625,-0.009468336589634418,-0.005176119972020388,-0.002216815249994397
1768558582952346600,2.3033466796875,-0.0028597023338079453,-0.0047058057971298695,-0.009125054813921452
1768558582962375700,2.313375732421875,0.010792726650834084,-0.00561021501198411,-0.01775955595076084
1768558582972404700,2.32340478515625,0.014565893448889256,-0.006072806194424629,-0.01667298562824726
1768558582982432500,2.3334326171875,0.008518120273947716,-0.002606169320642948,-0.02058916538953781
1768558582992461600,2.343461669921875,-0.0023188143968582153,-0.004089550115168095,-0.01750735379755497
1768558583002491000,2.353490966796875,-0.00923424493521452,0.0012418320402503014,-0.022592926397919655
1768558583012518700,2.3635185546875,-0.00929203536361456,0.0025683525018393993,-0.01954999938607216
1768558583022547700,2.373547607421875,-0.008188420906662941,-0.0015939018921926618,-0.009333847090601921
1768558583032576500,2.383576416015625,0.0016082830261439085,0.0012785836588591337,-0.010056096129119396
1768558583042605600,2.39360546875,0.014704111032187939,-0.0038482677191495895,-0.008922655135393143
1768558583052633900,2.4036337890625,0.01907648891210556,-0.00624085171148181,-0.006416087504476309
1768558583062662700,2.41366259765625,0.016379771754145622,-0.01607111096382141,-0.0062278020195662975
1768558583072691700,2.423691650390625,0.013891846872866154,-0.023121830075979233,-0.002377403900027275
1768558583082719500,2.433719482421875,0.011494469828903675,-0.024280039593577385,-0.002172074280679226
1768558583092748500,2.44374853515625,0.008498679846525192,-0.007124488707631826,-0.005130046978592873
1768558583102777600,2.453777587890625,-0.005050684791058302,-0.00999111495912075,0.003060770919546485
1768558583112805600,2.4638056640625,-0.015393603593111038,-0.008052067831158638,0.004508199170231819
1768558583122834700,2.473834716796875,-0.0046488139778375626,-0.0034208304714411497,0.0000881506348378025
1768558583132863700,2.48386376953125,-0.004208593629300594,-0.0019949739798903465,0.0002540655550546944
1768558583142892500,2.493892578125,-0.01383991539478302,-0.0025859293527901173,0.002662894781678915
1768558583152920800,2.5039208984375,-0.016947558149695396,-0.003070624778047204,0.00013555490295402706
1768558583162949600,2.51394970703125,-0.014305436052381992,-0.0017915084026753902,-0.0006282397080212831
1768558583172978700,2.523978759765625,-0.008988435380160809,-0.004077565856277943,-0.0037534593138843775
1768558583183006500,2.53400634765625,-0.002436259761452675,-0.0038280277512967587,-0.005058141890913248
1768558583193035500,2.544035400390625,0.002612827345728874,-0.006148706190288067,-0.002375007141381502
1768558583203064300,2.554064208984375,0.0030605047941207886,-0.007797735743224621,0.0004876247840002179
1768558583213092600,2.564092529296875,-0.00034221619716845453,-0.006432599388062954,-0.0010327738709747791
1768558583223121400,2.574121337890625,-0.012556271627545357,-0.005074386950582266,-0.003051982494071126
1768558583233150500,2.584150390625,-0.026331473141908646,-0.020300744101405144,0.007555654272437096
1768558583243179500,2.594179443359375,-0.024212928488850594,0.0041337586008012295,-0.00683207344263792
1768558583253207600,2.60420751953125,-0.00404507527127862,-0.004166515544056892,-0.01056289579719305
1768558583263236600,2.614236572265625,-0.013526461087167263,-0.01236425805836916,0.008783903904259205
1768558583273265700,2.624265625,-0.013461213558912277,-0.008898686617612839,-0.002410160843282938
1768558583283293400,2.63429345703125,0.005277852527797222,-0.008280833251774311,-0.006203567609190941
1768558583293322500,2.644322509765625,0.005353220272809267,-0.012942696921527386,0.0004894890007562935
1768558583303351600,2.6543515625,0.006632869131863117,-0.009249158203601837,0.0031166973058134317
1768558583313379600,2.664379638671875,0.0142945172265172,-0.009307214990258217,0.0009749832679517567
1768558583323408600,2.67440869140625,0.01708977110683918,-0.00894023198634386,-0.0031904669012874365
1768558583333437400,2.6844375,0.012118448503315449,-0.0075846826657652855,-0.006976949516683817
1768558583343466500,2.694466552734375,0.011314705945551395,-0.0054490938782691956,-0.00529569573700428
1768558583353494500,2.70449462890625,-0.0028043086640536785,-0.006630738265812397,-0.004560130648314953
1768558583363523600,2.714523681640625,-0.020654145628213882,-0.003964381758123636,-0.007446997333317995
1768558583373552600,2.724552734375,-0.03184102103114128,-0.003933488857001066,-0.00640756543725729
1768558583383580400,2.734580322265625,-0.03525545820593834,-0.004253068007528782,-0.00971574429422617
1768558583393609500,2.744609375,-0.0366661362349987,-0.002275671111419797,-0.010724283754825592
1768558583403638500,2.754638427734375,-0.0279698483645916,-0.004926581867039204,-0.00823955424129963
1768558583413666600,2.76466650390625,-0.016948889940977097,-0.005179848056286573,-0.005943110212683678
1768558583423695600,2.774695556640625,0.0014317154418677092,-0.008764995262026787,-0.001740642124786973
1768558583433724400,2.784724365234375,0.0046477485448122025,-0.014403972774744034,0.004188353195786476
1768558583443753500,2.79475341796875,0.0017635452095419168,-0.01266998890787363,0.0031997880432754755
1768558583453781500,2.804781494140625,0.000014381069377122913,-0.008613994345068932,-0.00005672533006872982
1768558583463810600,2.814810546875,-0.0008572715451009572,-0.005234176758676767,-0.003954527899622917
1768558583473839600,2.824839599609375,0.000624777574557811,-0.0059748017229139805,-0.005131911486387253
1768558583483867400,2.834867431640625,0.0006748450105078518,-0.005371063016355038,-0.004993427079170942
1768558583493896400,2.844896484375,-0.0003259709046687931,-0.00603392394259572,-0.004357996862381697
1768558583503925500,2.854925537109375,-0.0009989517275243998,-0.0046573360450565815,-0.0052261874079704285
1768558583513953500,2.86495361328125,-0.0051843756809830666,-0.0035475967451930046,-0.003997404593974352
1768558583523982600,2.874982666015625,-0.0056829191744327545,-0.0062666842713952065,-0.0036967338528484106
1768558583534011600,2.88501171875,-0.005910353269428015,-0.003991279285401106,-0.005871737375855446
1768558583544040400,2.89504052734375,-0.0070914654061198235,-0.003316700691357255,-0.00512685114517808
1768558583554068500,2.905068359375,-0.008696019649505615,-0.007397462613880634,0.00043116576853208244
1768558583564097300,2.91509716796875,-0.0064981128089129925,-0.008194812573492527,-0.004518052563071251
1768558583574126600,2.925126708984375,-0.001121989800594747,-0.009155681356787682,-0.008371113799512386
1768558583584154600,2.935154541015625,-0.000010652644050423987,-0.014712633565068245,-0.00746004655957222
1768558583594183400,2.945183349609375,-0.004667722620069981,-0.0210629403591156,-0.0054509579204022884
1768558583604212500,2.95521240234375,-0.00387356779538095,-0.02418922632932663,0.00018455706594977528
1768558583614241500,2.965241455078125,-0.008053931407630444,-0.028136562556028366,0.004275705199688673
1768558583624269600,2.97526953125,-0.00475374236702919,-0.0326538160443306,0.004679440520703793
1768558583634298600,2.985298583984375,-0.05209409445524216,-0.028188761323690414,0.0014223942998796701
1768558583644327700,2.99532763671875,-0.10535305738449097,0.01044491771608591,-0.0040765004232525826
1768558583654355500,3.00535546875,-0.027212979272007942,-0.01594780758023262,-0.011432151310145855
1768558583664384500,3.015384521484375,-0.010041449218988419,-0.02016385830938816,-0.018624285236001015
1768558583674413600,3.02541357421875,-0.022578811272978783,-0.04669799655675888,-0.006056294776499271
1768558583684441600,3.035441650390625,-0.010787666775286198,-0.05945160984992981,0.0008615325787104666
1768558583694470400,3.045470458984375,0.007955394685268402,-0.06672123819589615,0.0009137305896729231
1768558583704499500,3.05549951171875,0.003940413240343332,-0.05414099991321564,-0.0003504719934426248
1768558583714528500,3.065528564453125,0.0019006980583071709,-0.03865045681595802,-0.0046179210767149925
1768558583724556500,3.075556640625,0.01290168333798647,-0.03129054605960846,-0.011566108092665672
1768558583734585600,3.085585693359375,0.05228584259748459,-0.06596782803535461,0.003748132847249508
1768558583744614700,3.09561474609375,0.08331699669361115,-0.19907981157302856,-0.01417440827935934
1768558583754642400,3.105642333984375,-0.002316950121894479,-0.017845043912529945,-0.025167139247059822
1768558583764671500,3.11567138671875,-0.008349276147782803,-0.06931542605161667,0.008923720568418503
1768558583774700300,3.1257001953125,-0.01738271862268448,-0.028330974280834198,-0.012021242640912533
1768558583784729600,3.1357294921875,-0.03143329173326492,-0.0672520101070404,0.016452476382255554
1768558583794757600,3.145757568359375,-0.027773573994636536,-0.05782867968082428,0.03061889484524727
1768558583804786400,3.155786376953125,-0.02292635478079319,-0.03469859063625336,0.020305538550019264
1768558583814815500,3.1658154296875,-0.006481601390987635,-0.03865045681595802,0.018859175965189934
1768558583824843500,3.175843505859375,-0.013573865406215191,-0.03969920799136162,0.028053471818566322
1768558583834872600,3.18587255859375,-0.015266304835677147,-0.03314223885536194,0.0289341788738966
1768558583844901600,3.195901611328125,-0.027965055778622627,-0.057736001908779144,0.01744796521961689
1768558583854929400,3.205929443359375,-0.006196110509335995,-0.02082458883523941,0.027282753959298134
1768558583864958500,3.21595849609375,0.00043649208964779973,-0.06703069806098938,0.0005387574783526361
1768558583874987500,3.225987548828125,-0.02430214360356331,-0.00028309403569437563,0.022554844617843628
1768558583885016300,3.236016357421875,-0.01955346204340458,-0.03658890351653099,0.020622720941901207
1768558583895044600,3.246044677734375,-0.023990022018551826,-0.07428514957427979,-0.007808121852576733
1768558583905073400,3.256073486328125,-0.04039003327488899,-0.006883206311613321,-0.03331694379448891
1768558583915102500,3.2661025390625,-0.046715039759874344,-0.05083362013101578,-0.06327883899211884
1768558583925130500,3.276130615234375,-0.05812934786081314,-0.016833841800689697,-0.0874486193060875
1768558583935159600,3.28615966796875,-0.07325370609760284,-0.04133439064025879,-0.1092950627207756
1768558583945188600,3.296188720703125,-0.06608261168003082,-0.012830844148993492,-0.09727142751216888
1768558583955217700,3.3062177734375,-0.02546141855418682,-0.008370847441256046,-0.06677529960870743
1768558583965245400,3.316245361328125,0.00885101594030857,-0.004234958905726671,-0.0244896300137043
1768558583975274500,3.3262744140625,0.01483433973044157,-0.003207511268556118,0.02473464049398899
1768558583985303600,3.336303466796875,0.018788335844874382,-0.0032631712965667248,0.061776548624038696
1768558583995331600,3.34633154296875,0.028844164684414864,-0.005578523501753807,0.07972412556409836
1768558584005360600,3.356360595703125,0.027509920299053192,-0.006323409732431173,0.08399050682783127
1768558584015389400,3.366389404296875,0.023623570799827576,-0.005191033706068993,0.06408710777759552
1768558584025418500,3.37641845703125,0.014968829229474068,-0.007499461527913809,0.02791205793619156
1768558584035446500,3.386446533203125,-0.008021441288292408,-0.000672448193654418,-0.0002902845444623381
1768558584045475600,3.3964755859375,-0.024601217359304428,-0.0009315737406723201,-0.026930417865514755
1768558584055504600,3.406504638671875,-0.027951739728450775,0.0012008192716166377,-0.04241377115249634
1768558584065532400,3.416532470703125,-0.02280571311712265,0.000031425301131093875,-0.04830068722367287
1768558584075561500,3.4265615234375,-0.022833410650491714,-0.003093261504545808,-0.047201868146657944
1768558584085590500,3.436590576171875,-0.019751068204641342,-0.00253532943315804,-0.02184644341468811
1768558584095619300,3.446619384765625,-0.0038607846945524216,-0.0059633501805365086,0.003013899317011237
1768558584105647600,3.456647705078125,0.0012492889072746038,-0.003549993736669421,0.02461959235370159
1768558584115676400,3.466676513671875,0.003884486621245742,-0.007074953522533178,0.027120834216475487
1768558584125705500,3.47670556640625,0.0040765004232525826,-0.010043046437203884,0.020444821566343307
1768558584135733500,3.4867333984375,-0.004671450704336166,-0.004352404270321131,0.009388442151248455
1768558584145762600,3.496762451171875,-0.012991698458790779,-0.00219551008194685,-0.005823001731187105
1768558584155791600,3.50679150390625,-0.0156553927809,-0.003034405643120408,-0.026882480829954147
1768558584165820700,3.516820556640625,-0.008861402049660683,0.0017936390358954668,-0.028136562556028366
1768558584175848400,3.526848388671875,-0.005852030124515295,-0.001020523370243609,-0.010945858433842659
1768558584185877800,3.536877685546875,0.0004601942200679332,-0.0031438616570085287,0.011805260553956032
1768558584195906800,3.54690673828125,0.009216934442520142,-0.005575061310082674,0.028195152059197426
1768558584205935000,3.55693505859375,0.009528257884085178,-0.004521248396486044,0.03645281493663788
1768558584215964000,3.5669638671875,0.014877216890454292,-0.0025425199419260025,0.03135525807738304
1768558584225993000,3.576992919921875,0.019625632092356682,-0.0026008430868387222,0.014091051183640957
1768558584236022000,3.58702197265625,0.008012119680643082,-0.002834668615832925,-0.004699414130300283
1768558584246049800,3.5970498046875,0.0022474415600299835,0.00035260253935121,-0.021791847422719002
1768558584256078800,3.607078857421875,-0.0041705104522407055,-0.00017230652156285942,-0.03647065907716751
1768558584266108000,3.61710791015625,-0.007201986387372017,0.0018738001817837358,-0.04001825675368309
1768558584276136000,3.627135986328125,-0.011649465188384056,0.0009755159262567759,-0.04084703326225281
1768558584286165000,3.6371650390625,-0.009873935952782631,0.002213885774835944,-0.03792501240968704
1768558584296193800,3.64719384765625,-0.013050287961959839,0.0001699096756055951,-0.03356994315981865
1768558584306222800,3.657222900390625,-0.014742194674909115,-0.00016165387933142483,-0.03214328736066818
1768558584316251000,3.6672509765625,-0.024814004078507423,0.0014809839194640517,-0.03602777421474457
1768558584326280000,3.677280029296875,-0.028269721195101738,0.0012309130979701877,-0.04041986167430878
1768558584336309000,3.68730908203125,-0.021923674270510674,0.00036964676110073924,-0.04495549201965332
1768558584346336800,3.697336669921875,-0.010244115255773067,0.0016117451013997197,-0.0373617522418499
1768558584356365800,3.70736572265625,-0.0015456987312063575,0.00047590688336640596,-0.02630697190761566
1768558584366395000,3.717394775390625,0.0014016216155141592,0.0003504719934426248,-0.013736585155129433
1768558584376424000,3.727423828125,0.003043726785108447,-0.00018189390539191663,-0.002397910226136446
1768558584386452000,3.737451904296875,0.007154049351811409,-0.00290391081944108,-0.0015329155139625072
1768558584396480800,3.747480712890625,0.001710814656689763,-0.0002993392990902066,-0.008498946204781532
1768558584406509800,3.757509765625,-0.0001424791116733104,0.0014916365034878254,-0.02110901288688183
1768558584416539000,3.767538818359375,0.013430854305624962,0.0015398397808894515,-0.036196086555719376
1768558584426567000,3.77756689453125,0.020833110436797142,-0.0023491743486374617,-0.05788274109363556
1768558584436596000,3.787595947265625,-0.0070917317643761635,-0.011758921667933464,-0.07221560925245285
1768558584446625000,3.797625,-0.0688304603099823,-0.08972881734371185,-0.07042622566223145
1768558584456652800,3.80765283203125,-0.01948501728475094,-0.12354643642902374,-0.09560775011777878
1768558584466681900,3.817681884765625,-0.026337863877415657,-0.15634167194366455,-0.08639027923345566
1768558584476711000,3.8277109375,-0.019702598452568054,-0.23538562655448914,-0.06394649296998978
1768558584486740000,3.837739990234375,-0.004606469534337521,-0.3254856765270233,-0.053653109818696976
1768558584496768000,3.84776806640625,-0.01883840188384056,-0.4258445203304291,-0.03928109258413315
1768558584506796800,3.857796875,-0.009281915612518787,-0.3943409025669098,-0.0569775328040123
1768558584516825900,3.867825927734375,2.4311468601226807,4.599532604217529,-0.5413740277290344
1768558584526855000,3.87785498046875,0.8759815692901611,0.7801733016967773,0.1710532307624817
1768558584536883000,3.887883056640625,0.286321759223938,0.5982708930969238,0.02605929784476757
1768558584546912000,3.897912109375,-0.48575204610824585,-0.02455407939851284,0.019630959257483482
1768558584556940800,3.90794091796875,-0.9375099539756775,-0.21286459267139435,-0.16147305071353912
1768558584566968800,3.91796875,-1.3081880807876587,-0.9807836413383484,-0.33145543932914734
1768558584576998000,3.927997802734375,-1.1642227172851562,-1.0168596506118774,-0.3864086866378784
1768558584587027000,3.93802685546875,0.06991144269704819,-0.5233740210533142,-0.24632935225963593
1768558584597056000,3.948055908203125,0.03985020890831947,-0.2528167963027954,-0.2969509959220886
1768558584607083800,3.958083740234375,0.0014540859265252948,-0.06911515444517136,-0.09407589584589005
1768558584617112800,3.96811279296875,0.00606428412720561,0.009755158796906471,0.11596068739891052
1768558584627142000,3.978141845703125,0.056771136820316315,0.01757633127272129,0.26910310983657837
1768558584637170700,3.988170654296875,0.10415596514940262,0.02467658370733261,0.2928409278392792
1768558584647199000,3.998198974609375,0.12984588742256165,0.020853083580732346,0.21364490687847137
1768558584657228000,4.00822802734375,0.0995795875787735,0.004508199170231819,0.09745145589113235
1768558584667256800,4.0182568359375,-0.0044019389897584915,0.033252496272325516,0.025380723178386688
1768558584677284900,4.028284912109375,-0.019808592274785042,0.008041148073971272,-0.04580850154161453
1768558584687314000,4.03831396484375,-0.05122110992670059,0.00018216021999251097,-0.06174139305949211
1768558584697343000,4.048343017578125,-0.06287616491317749,0.0022801985032856464,-0.04940589889883995
1768558584707372000,4.0583720703125,-0.02299186773598194,-0.0017736653098836541,-0.0394669808447361
1768558584717399800,4.06839990234375,0.013497965410351753,-0.0038927425630390644,-0.022538065910339355
1768558584727428900,4.078428955078125,0.010945325717329979,-0.000150202278746292,0.0054669370874762535
1768558584737458000,4.0884580078125,0.013848171569406986,-0.0009432916413061321,0.022659506648778915
1768558584747486700,4.09848681640625,0.0272689051926136,-0.004222974646836519,0.023417973890900612
1768558584757515000,4.108514892578125,0.0393492691218853,-0.018966233357787132,0.02280491404235363
1768558584767543800,4.118543701171875,0.0346626378595829,-0.044988781213760376,0.030789338052272797
1768558584777572900,4.12857275390625,-0.003471164032816887,-0.11374600976705551,0.036910880357027054
1768558584787601000,4.138600830078125,-0.0062333946116268635,-0.1337791085243225,0.02587420679628849
1768558584797630000,4.1486298828125,0.0016215987270697951,-0.11194943636655807,0.02058543637394905
1768558584807659000,4.158658935546875,0.004248540848493576,-0.09398588538169861,0.02333941124379635
1768558584817688000,4.16868798828125,0.0019481023773550987,-0.07133249938488007,0.04628094658255577
1768558584827715800,4.1787158203125,0.006612629164010286,-0.025054486468434334,0.07497837394475937
1768558584837745000,4.188744873046875,0.021288510411977768,-0.006850183010101318,0.06697849929332733
1768558584847773700,4.198773681640625,0.023897608742117882,-0.0065199509263038635,0.02731258049607277
1768558584857802800,4.208802734375,0.007177751511335373,-0.0031489215325564146,-0.023120764642953873
1768558584867831000,4.2188310546875,-0.029444174841046333,0.0024021712597459555,-0.06568659842014313
1768558584877859800,4.22885986328125,-0.06513585895299911,0.0057558901607990265,-0.10106775909662247
1768558584887889000,4.238888916015625,-0.07950680702924728,0.00481393001973629,-0.12841762602329254
1768558584897918000,4.24891796875,-0.07496105879545212,0.006424609571695328,-0.1499311774969101
1768558584907946000,4.258946044921875,-0.0494178831577301,0.005591839086264372,-0.1550351232290268
1768558584917975000,4.26897509765625,-0.029293440282344818,0.003620301140472293,-0.14819025993347168
1768558584928003800,4.27900390625,-0.026103505864739418,0.0022559636272490025,-0.1342097371816635
1768558584938031900,4.289031982421875,-0.026767166331410408,0.0030075078830122948,-0.11598332971334457
1768558584951821800,4.30282177734375,-0.02208559401333332,0.003147589974105358,-0.0871676579117775
1768558584961851000,4.312850830078125,-0.0127597376704216,-0.0005376922199502587,-0.0668107196688652
1768558584971880000,4.3228798828125,-0.00863423477858305,-0.00020932445477228612,-0.043051328510046005
1768558584981908000,4.332907958984375,-0.007988950237631798,-0.0012924320762977004,-0.01936783827841282
1768558584991937000,4.34293701171875,-0.003945473115891218,-0.0023702133912593126,0.004974784795194864
1768558585001966000,4.352966064453125,0.0018258632626384497,-0.003108175238594413,0.02725585550069809
1768558585011993900,4.362993896484375,0.006009423173964024,-0.005144428461790085,0.0473608560860157
1768558585022023000,4.37302294921875,0.006502107717096806,-0.004944957327097654,0.06804802268743515
1768558585032051700,4.3830517578125,0.008474178612232208,-0.006315686274319887,0.08043039590120316
1768558585042080800,4.393080810546875,0.012498747557401657,-0.007259244564920664,0.09419228136539459
1768558585052109000,4.403109130859375,0.01404710952192545,-0.008592955768108368,0.10165818780660629
1768558585062137900,4.413137939453125,0.014376276172697544,-0.007518370170146227,0.10939732939004898
1768558585072167000,4.4231669921875,0.01780216582119465,-0.008012119680643082,0.10506889224052429
1768558585082196000,4.433196044921875,0.02436073310673237,-0.006737264804542065,0.08244986832141876
1768558585092224000,4.44322412109375,0.018272746354341507,-0.005540973041206598,0.047620780766010284
1768558585102253000,4.453253173828125,0.0018671422731131315,-0.002674079965800047,0.01062281709164381
1768558585112281900,4.46328173828125,-0.015125956386327744,0.000051132694352418184,-0.03118002414703369
1768558585122311000,4.473310791015625,-0.021737519651651382,0.002653839997947216,-0.06351213157176971
1768558585132339000,4.4833388671875,-0.022782010957598686,0.0022237394005060196,-0.08405202627182007
1768558585142367700,4.49336767578125,-0.02442890964448452,0.0027052389923483133,-0.0871756449341774
1768558585152396800,4.503396728515625,-0.023732226341962814,0.002612294629216194,-0.0801110789179802
1768558585162426000,4.513426025390625,-0.015239406377077103,0.0012937636347487569,-0.06902247667312622
1768558585172454000,4.523453857421875,-0.009131446480751038,0.00003435477628954686,-0.05747288092970848
1768558585182482400,4.533482421875,-0.011177287437021732,0.00029294771957211196,-0.04123585298657417
1768558585192511200,4.54351123046875,-0.009786584414541721,0.0006266417913138866,-0.02660071849822998
1768558585202540300,4.553540283203125,-0.004926581867039204,-0.0006301039247773588,-0.009833189658820629
1768558585212568300,4.563568359375,-0.000577107013668865,-0.0010508833220228553,0.005336974747478962
1768558585222597400,4.573597412109375,-0.0024399880785495043,-0.0022295983508229256,0.020320184528827667
1768558585232626400,4.58362646484375,0.0011094729416072369,-0.004080761689692736,0.033843982964754105
1768558585242655500,4.593655517578125,0.004579837899655104,-0.005087969359010458,0.0442713238298893
1768558585252683500,4.60368359375,0.0062608253210783005,-0.004520449787378311,0.05398893356323242
1768558585262712600,4.613712646484375,0.00683154072612524,-0.005306348204612732,0.06220372021198273
1768558585272741400,4.623741455078125,0.01001907791942358,-0.005298625212162733,0.06089344248175621
1768558585282770400,4.6337705078125,0.012856409884989262,-0.004830707795917988,0.04930336773395538
1768558585292798200,4.643798095703125,0.00833675917237997,-0.003748665563762188,0.03256060555577278
1768558585302827300,4.6538271484375,-0.0004391552647575736,-0.0014021543320268393,0.009309612214565277
1768558585312856300,4.663856201171875,-0.006820355542004108,-0.0016706009628251195,-0.016533436253666878
1768558585322885600,4.6738857421875,-0.013588246889412403,0.0005632585380226374,-0.036679983139038086
1768558585332913400,4.683913330078125,-0.014061490073800087,0.0007395598222501576,-0.049922820180654526
1768558585342942500,4.6939423828125,-0.017610952258110046,0.0003043993201572448,-0.05307413637638092
1768558585352971300,4.70397119140625,-0.014732606709003448,0.0008013451588340104,-0.05176865682005882
1768558585363000300,4.714000244140625,-0.012108860537409782,0.000589091214351356,-0.04074636474251747
1768558585373028400,4.7240283203125,-0.010610033757984638,-0.0004588626616168767,-0.029986927285790443
1768558585383057400,4.734057373046875,-0.005878129042685032,-0.0016397082945331931,-0.019227223470807076
1768558585393086500,4.74408642578125,-0.004731904715299606,-0.0026285399217158556,-0.00896792858839035
1768558585403115500,4.754115478515625,-0.0022383867762982845,-0.0034671693574637175,0.004219512455165386
1768558585413143300,4.764143310546875,-0.0003323625132907182,-0.002240783767774701,0.015320898965001106
1768558585423172400,4.77417236328125,0.0004010720585938543,-0.0030045784078538418,0.025106951594352722
1768558585433201400,4.784201416015625,0.003034405643120408,-0.003890611929818988,0.03344504162669182
1768558585443230500,4.79423046875,0.004798483569175005,-0.0031502533238381147,0.03711621090769768
1768558585453258500,4.804258544921875,0.009702960960566998,0.01215706393122673,0.036560408771038055
1768558585463287300,4.814287353515625,0.06245219334959984,-0.03985154256224632,0.11222294718027115
1768558585473316400,4.82431640625,0.11652341485023499,-0.2177581638097763,0.2729569673538208
1768558585483345400,4.834345458984375,0.17404237389564514,-0.5809677839279175,0.38908517360687256
1768558585493373400,4.84437353515625,0.15036074817180634,-0.6144213676452637,0.04591342806816101
1768558585503402500,4.854402587890625,0.004494350403547287,-0.5833768844604492,-0.14857695996761322
1768558585513431300,4.864431396484375,-0.12285508215427399,-0.58391273021698,0.02341637574136257
1768558585523460400,4.87446044921875,-0.06507034599781036,-0.28905922174453735,-0.03719929978251457
1768558585533488600,4.884488525390625,-0.013059875927865505,-0.22895914316177368,-0.034388601779937744
1768558585543517400,4.894517333984375,0.014161092229187489,-0.21523134410381317,-0.026798058301210403
1768558585553546500,4.90454638671875,0.004349208436906338,-0.2320699840784073,-0.013579990714788437
1768558585563575600,4.914575439453125,-0.01708178222179413,-0.28043004870414734,-0.016445020213723183
1768558585573603300,4.924603271484375,-0.034444261342287064,-0.25911945104599,-0.00824754312634468
1768558585583632400,4.93463232421875,-0.03411562740802765,-0.16549868881702423,0.008749282918870449
1768558585593661200,4.9446611328125,-0.027770111337304115,0.02473117969930172,0.014229536056518555
1768558585603690500,4.9546904296875,-0.02622867375612259,0.019212841987609863,-0.052979327738285065
1768558585613718500,4.964718505859375,-0.04542340710759163,0.008497348055243492,-0.08831974118947983
1768558585623747300,4.974747314453125,-0.06885629892349243,0.007953530177474022,-0.1209876760840416
1768558585633776400,4.9847763671875,-0.08819057792425156,0.01254908088594675,-0.15026140213012695
1768558585643805400,4.994805419921875,-0.08784090727567673,0.01031522173434496,-0.18514534831047058
1768558585653834200,5.004834228515625,-0.06511189043521881,0.00914715975522995,-0.19812053442001343
1768558585663862500,5.014862548828125,-0.033417876809835434,0.008585498668253422,-0.19248156249523163
1768558585673891300,5.024891357421875,-0.02364487573504448,0.004283161833882332,-0.17861820757389069
1768558585683920400,5.03492041015625,-0.029221534729003906,0.005141764879226685,-0.15798057615756989
1768558585693949400,5.044949462890625,-0.03630634397268295,0.005887982901185751,-0.13260412216186523
1768558585703977500,5.0549775390625,-0.027302194386720657,0.0030751521699130535,-0.10767080634832382
1768558585714006500,5.065006591796875,-0.013335512951016426,0.0014391721924766898,-0.08242297172546387
1768558585724035600,5.07503564453125,-0.006774016655981541,0.00098190747667104,-0.05483555048704147
1768558585734064400,5.085064453125,-0.009383381344377995,-0.00035473305615596473,-0.024767665192484856
1768558585744092400,5.095092529296875,-0.005149488337337971,-0.001002413802780211,0.0049319081008434296
1768558585754121200,5.105121337890625,0.0037880802992731333,-0.0033073797821998596,0.032391227781772614
1768558585764150300,5.115150390625,0.006299973931163549,-0.004926315508782864,0.057551708072423935
1768558585774179600,5.1251796875,0.007269097957760096,-0.005268797744065523,0.08029057830572128
1768558585784207400,5.135207275390625,0.009863549843430519,-0.006760966964066029,0.10123714059591293
1768558585794236400,5.145236328125,0.01624954305589199,-0.007503190077841282,0.11771517992019653
1768558585804265500,5.155265380859375,0.018609104678034782,-0.008301072753965855,0.1278889924287796
1768558585814294300,5.165294189453125,0.0175012294203043,-0.008624913170933723,0.1371951401233673
1768558585824322600,5.175322509765625,0.02016572281718254,-0.008962069638073444,0.141010120511055
1768558585834351400,5.185351318359375,0.02160036750137806,-0.007905327714979649,0.13894669711589813
1768558585844380400,5.19538037109375,0.039145272225141525,-0.008203068748116493,0.13996030390262604
1768558585854409500,5.205409423828125,0.04873824492096901,-0.007471232209354639,0.13726943731307983
1768558585864438300,5.215438232421875,0.041787128895521164,-0.010028665885329247,0.13612455129623413
1768558585874466300,5.22546630859375,0.014537397772073746,-0.05552850663661957,0.14405837655067444
1768558585884495600,5.23549560546875,-0.025419073179364204,-0.037763092666864395,0.12573368847370148
1768558585894524400,5.2455244140625,-0.02587793581187725,-0.05389918386936188,0.06136482208967209
1768558585904553500,5.255553466796875,0.0023787354584783316,-0.011112572625279427,-0.02105308696627617
1768558585914581200,5.265581298828125,0.03612444922327995,-0.0028213527984917164,-0.049858104437589645
1768558585924610300,5.2756103515625,0.043361056596040726,-0.010265686549246311,0.019524965435266495
1768558585934639400,5.285639404296875,0.04436187073588371,-0.04261350631713867,0.0789233073592186
1768558585944668400,5.29566845703125,0.04237861558794975,-0.047032490372657776,0.027100859209895134
1768558585954696400,5.305696533203125,0.006967894732952118,-0.008077899925410748,-0.033964626491069794
1768558585964725500,5.3157255859375,-0.0586199052631855,0.011785286478698254,-0.019605126231908798
1768558585974754300,5.32575439453125,-0.07043741643428802,-0.0007387608638964593,-0.00373002327978611
1768558585984783400,5.335783447265625,-0.04364388436079025,0.00005912217602599412,-0.016750484704971313
1768558585994812400,5.3458125,-0.01973721943795681,0.008189486339688301,-0.034026943147182465
1768558586004840400,5.35584033203125,-0.01446948666125536,0.03369857370853424,-0.02899729646742344
1768558586014869500,5.365869384765625,-0.010962369851768017,0.0324905663728714,-0.045642320066690445
1768558586024898300,5.375898193359375,-0.013848704285919666,0.036438968032598495,-0.06834416836500168
1768558586034927400,5.38592724609375,-0.015977634117007256,0.03314277157187462,-0.05531518533825874
1768558586044955400,5.395955322265625,-0.01152749266475439,0.012888101860880852,-0.04192694276571274
1768558586054984400,5.405984375,-0.012257198803126812,-0.01678270846605301,-0.024597221985459328
1768558586065013500,5.416013427734375,-0.014885205775499344,-0.03211266174912453,-0.04487612843513489
1768558586075042600,5.42604248046875,-0.02149117738008499,-0.040657948702573776,-0.07213384658098221
1768558586085071400,5.4360712890625,-0.02527073584496975,-0.054663777351379395,-0.05277426540851593
1768558586095099400,5.446099365234375,-0.01389903761446476,0.014563229866325855,-0.013341371901333332
1768558586105128200,5.456128173828125,0.0038810246624052525,0.04722610116004944,0.022121546790003777
1768558586115157200,5.4661572265625,0.012101403437554836,0.0628008022904396,0.05932138115167618
1768558586125186600,5.4761865234375,0.00035233621019870043,0.05326934531331062,0.0725351870059967
1768558586135214300,5.48621435546875,0.010839065536856651,0.08254494518041611,0.09941260516643524
1768558586145243400,5.496243408203125,0.011664113029837608,0.05666940286755562,0.11437850445508957
1768558586155272400,5.5062724609375,0.0189001876860857,0.015341139398515224,0.09280530363321304
1768558586165301200,5.51630126953125,-0.004761465825140476,0.027453728020191193,-0.02959490939974785
1768558586175329500,5.52632958984375,-0.018267953768372536,-0.007029413711279631,-0.015304121188819408
1768558586185359400,5.536359375,-0.0029622339643538,-0.040524523705244064,0.014455904252827168
1768558586195388700,5.546388671875,-0.031679634004831314,-0.05896371603012085,-0.051681037992239
1768558586205417700,5.556417724609375,-0.020844295620918274,-0.10691259801387787,-0.046425823122262955
1768558586215446500,5.566446533203125,-0.03166098892688751,-0.10911929607391357,-0.053111422806978226
1768558586225474600,5.576474609375,-0.023058447986841202,-0.11575988680124283,-0.055263254791498184
1768558586235503600,5.586503662109375,-0.02628726325929165,-0.059785570949316025,-0.042342398315668106
1768558586245532400,5.596532470703125,-0.020673586055636406,-0.036724723875522614,-0.029592247679829597
1768558586255561500,5.6065615234375,-0.015538479201495647,0.008381767198443413,-0.04921361804008484
1768558586265589500,5.616589599609375,-0.017045296728610992,0.04978060722351074,-0.03039146214723587
1768558586275618600,5.62661865234375,-0.014138721860945225,0.055992428213357925,-0.023681627586483955
1768558586285647600,5.636647705078125,-0.008207862265408039,0.039732497185468674,-0.008364190347492695
1768558586295676400,5.646676513671875,-0.0013291836949065328,0.008821987546980381,-0.02924390509724617
1768558586305705500,5.65670556640625,0.1467931717634201,0.039682433009147644,0.12043692916631699
1768558586315733800,5.666733642578125,0.03566958010196686,0.13538765907287598,0.12521624565124512
1768558586325762600,5.676762451171875,0.025678198784589767,0.03257045894861221,0.0046389601193368435
1768558586335791600,5.68679150390625,0.049853309988975525,0.14831942319869995,-0.029213545843958855
1768558586345820700,5.696820556640625,0.0321829691529274,0.20560722053050995,0.0025782061275094748
1768558586355848400,5.706848388671875,0.030854851007461548,0.15048271417617798,-0.013027917593717575
1768558586365877500,5.71687744140625,0.05345496907830238,0.21315275132656097,-0.015025555156171322
1768558586375906600,5.726906494140625,0.03567437455058098,0.195219025015831,-0.007123423274606466
1768558586385935600,5.736935546875,0.04482606053352356,0.16240115463733673,-0.02099796012043953
1768558586395964700,5.746964599609375,0.020490361377596855,0.1888042688369751,0.012052668258547783
1768558586405992400,5.756992431640625,0.02262728102505207,0.15662503242492676,-0.03546345233917236
1768558586416021500,5.767021484375,0.10906416922807693,0.145920991897583,-0.0402640663087368
1768558586426050600,5.777050537109375,0.1126575693488121,0.2503834664821625,-0.2004673182964325
1768558586436079600,5.78707958984375,-0.3874598443508148,0.1354971081018448,0.28193020820617676
1768558586446107600,5.797107666015625,0.029401032254099846,-0.43229761719703674,0.5443727374076843
1768558586456136400,5.807136474609375,-0.13362836837768555,0.2963389754295349,-0.15695339441299438
1768558586466165500,5.81716552734375,-0.019118832424283028,0.14917750656604767,0.039737291634082794
1768558586476194600,5.827194580078125,-0.07107098400592804,0.05672746151685715,0.06232462823390961
1768558586486223400,5.837223388671875,-0.10565958172082901,0.10521510243415833,-0.013717143796384335
1768558586496251600,5.847251708984375,-0.0574563667178154,0.07769239693880081,0.05452103167772293
1768558586506280700,5.85728076171875,-0.05007195472717285,0.1399749517440796,0.009149822406470776
1768558586516309500,5.8673095703125,-0.04172134771943092,0.11950429528951645,0.03512842580676079
1768558586526338600,5.877338623046875,0.006053098943084478,0.07275755703449249,0.029696110635995865
1768558586536367600,5.88736767578125,0.006326339207589626,0.10091249644756317,0.03675428777933121
1768558586546395600,5.897395751953125,-0.04331338405609131,0.05446590483188629,0.027237746864557266
1768558586556424700,5.9074248046875,-0.02508671022951603,0.027951207011938095,-0.041854240000247955
1768558586566453500,5.91745361328125,-0.05433008447289467,0.040237169712781906,0.000035686356568476185
1768558586576482600,5.927482666015625,-0.03952184319496155,-0.0062855929136276245,0.030060430988669395
1768558586586510600,5.937510498046875,-0.003531884169206023,0.047207191586494446,0.058873169124126434
1768558586596539400,5.947539306640625,-0.0019078885670751333,0.06688795238733292,0.008653408847749233
1768558586606568400,5.957568359375,0.009135175496339798,0.08346959203481674,0.03911624476313591
1768558586616597800,5.96759765625,-0.0028506475500762463,0.11993412673473358,0.028602350503206253
1768558586626626600,5.97762646484375,0.0054485611617565155,0.13353276252746582,0.01974387653172016
1768558586636654600,5.987654541015625,0.010636664927005768,0.12247664481401443,0.0019438412273302674
1768558586646683400,5.997683349609375,0.006879477761685848,0.09537472575902939,-0.019052254036068916
1768558586656712400,6.00771240234375,-0.013862285763025284,0.08837779611349106,-0.05420518293976784
1768558586666741500,6.017741455078125,-0.01637551188468933,0.06620512157678604,-0.07815951853990555
1768558586676770600,6.0277705078125,0.011199125088751316,0.02136813849210739,-0.09325351566076279
1768558586686798600,6.037798583984375,-0.040951427072286606,0.041003093123435974,-0.040221989154815674
1768558586696827600,6.04782763671875,-0.0018932411912828684,0.029465479776263237,-0.024634506553411484
1768558586706856400,6.0578564453125,0.030007433146238327,0.06612655520439148,0.04441007599234581
1768558586716885500,6.067885498046875,0.025486717000603676,0.11027777194976807,0.059544552117586136
1768558586726914600,6.07791455078125,0.01842321641743183,0.12320395559072495,0.06344235688447952
1768558586736942600,6.087942626953125,0.033193107694387436,0.18032263219356537,0.05011643096804619
1768558586746971600,6.0979716796875,0.015995211899280548,0.19493380188941956,0.0016112125013023615
1768558586757000400,6.10800048828125,-0.005114068277180195,0.18482844531536102,-0.04403936117887497
1768558586767029500,6.118029541015625,0.01104785781353712,0.1375780999660492,-0.024054469540715218
1768558586777058600,6.12805859375,-0.042325619608163834,0.07877524197101593,-0.023933028802275658
1768558586787086600,6.138086669921875,0.0030485205352306366,0.046302516013383865,-0.017779529094696045
1768558586797115600,6.14811572265625,0.0001968075957847759,0.008741027675569057,-0.013471334241330624
1768558586807144700,6.158144775390625,-0.01068034116178751,-0.00014993596414569765,-0.04549078643321991
1768558586817173500,6.168173583984375,0.0006002765148878098,-0.015792012214660645,-0.013726198114454746
1768558586827201500,6.178201416015625,0.0025238776579499245,0.030400250107049942,-0.03061836212873459
1768558586837230600,6.188230712890625,0.007443535141646862,0.046364836394786835,-0.00929256808012724
1768558586847259600,6.198259765625,0.014464160427451134,0.07824207097291946,-0.01483274158090353
1768558586857288700,6.208288818359375,0.004555869847536087,0.11618279665708542,-0.0008918926469050348
1768558586867317800,6.21831787109375,0.006733004003763199,0.15657415986061096,0.01164733525365591
1768558586877345500,6.228345458984375,0.0023220102302730083,0.15954811871051788,-0.0002950782363768667
1768558586887374600,6.23837451171875,0.006200371775776148,0.15075995028018951,0.02563425712287426
1768558586897403400,6.2484033203125,0.0009006810723803937,0.1469460427761078,0.009607619605958462
1768558586907432400,6.258432373046875,-0.0024106933269649744,0.11889496445655823,0.04620824009180069
1768558586917461800,6.268461669921875,-0.008628375828266144,0.11845287680625916,0.009553291834890842
1768558586927489500,6.278489501953125,0.01516084372997284,0.12032081931829453,0.05522090941667557
1768558586937518600,6.2885185546875,-0.006281598005443811,0.1250641793012619,0.034993935376405716
1768558586947547600,6.298547607421875,-0.0028959212359040976,0.08486296236515045,0.021074658259749413
1768558586957576400,6.308576416015625,-0.0038549257442355156,0.06147747486829758,0.037875209003686905
1768558586967605500,6.31860546875,-0.005634982604533434,0.03430258110165596,0.01938461698591709
1768558586977633500,6.328633544921875,-0.0017475662752985954,-0.0022027005907148123,0.017617875710129738
1768558586987662600,6.33866259765625,-0.019778231158852577,-0.020602479577064514,0.02793176658451557
1768558586997691600,6.348691650390625,-0.01531850267201662,-0.0018817896489053965,0.003777693957090378
1768558587007720400,6.358720458984375,0.021094899624586105,-0.0015872439835220575,0.009058210067451
1768558587017749500,6.36874951171875,-0.032646626234054565,-0.002892459277063608,0.03662485629320145
1768558587027777800,6.37877783203125,0.014054300263524055,0.005226986017078161,0.01858806610107422
1768558587037806600,6.388806640625,0.004768123384565115,-0.008408132009208202,-0.010438259690999985
1768558587047835600,6.398835693359375,-0.01775263249874115,-0.039024364203214645,0.02185150235891342
1768558587057864700,6.40886474609375,-0.0001704423048067838,-0.06253128498792648,0.01679442636668682
1768558587067893500,6.4188935546875,-0.005368666257709265,-0.035647209733724594,-0.008012918755412102
1768558587077921500,6.428921630859375,-0.0008551410282962024,-0.06431720405817032,0.0036570527590811253
1768558587087950600,6.43895068359375,-0.020389428362250328,-0.0916857123374939,0.00287461606785655
1768558587097979600,6.448979736328125,-0.0060030315071344376,-0.10463133454322815,0.004038151353597641
1768558587108008700,6.4590087890625,-0.017017066478729248,-0.07357382029294968,-0.01173362135887146
1768558587118037500,6.46903759765625,-0.005182777531445026,-0.051302868872880936,-0.005546831991523504
1768558587128065500,6.4790654296875,0.004322843160480261,-0.01647964119911194,-0.0019803266040980816
1768558587138094600,6.489094482421875,-0.011092598550021648,0.05331994593143463,0.008204134181141853
1768558587148123400,6.499123291015625,-0.011378621682524681,0.07602925598621368,0.0030503845773637295
1768558587158152700,6.509152587890625,-0.011682222597301006,0.07308859378099442,-0.0067481836304068565
1768558587168181800,6.519181640625,0.0057585532777011395,0.029569344595074654,-0.0297914519906044
1768558587178209500,6.52920947265625,-0.015849802643060684,-0.023808127269148827,-0.013175456784665585
1768558587188238000,6.539238037109375,-0.020328974351286888,-0.05868248641490936,-0.014273211359977722
1768558587198267100,6.54926708984375,-0.023248331621289253,-0.06120317056775093,-0.046553388237953186
1768558587208296200,6.559296142578125,-0.001392566948197782,-0.073811374604702,-0.007215568795800209
1768558587218325200,6.5693251953125,-0.029444174841046333,-0.05860019475221634,-0.022344186902046204
1768558587228353300,6.579353271484375,-0.006824616342782974,-0.03226712718605995,-0.035344675183296204
1768558587238382000,6.589382080078125,-0.01287425309419632,0.014230068773031235,-0.0006303702248260379
1768558587248411100,6.5994111328125,0.00012889699428342283,0.06083325669169426,-0.02087731845676899
1768558587258440200,6.609440185546875,0.0015140071045607328,0.09976893663406372,-0.0019014970166608691
1768558587268469000,6.619468994140625,0.0012956279097124934,0.10617783665657043,0.00986461527645588
1768558587278497300,6.629497314453125,0.012193815782666206,0.1263699233531952,0.00010652644414221868
1768558587288526300,6.6395263671875,-0.013521134853363037,0.17003324627876282,0.006571616046130657
1768558587298555100,6.64955517578125,-0.0016357135027647018,0.13443849980831146,0.014572551473975182
1768558587308584200,6.659584228515625,0.016268718987703323,0.1644856184720993,-0.007216900121420622
1768558587318613200,6.66961328125,0.009644371457397938,0.08935624361038208,-0.0198029987514019
1768558587328641300,6.679641357421875,-0.010641459375619888,0.048295628279447556,-0.02466966025531292
1768558587338670300,6.68967041015625,0.0030423952266573906,-0.011303254403173923,-0.023204121738672256
1768558587348699100,6.69969921875,-0.004693022463470697,-0.011611382476985455,-0.03297792375087738
1768558587358728200,6.709728271484375,-0.005408880300819874,-0.01721840165555477,-0.038663506507873535
1768558587368757200,6.71975732421875,-0.006045908201485872,-0.007981760427355766,0.008107727393507957
1768558587378785000,6.729784912109375,0.00025353292585350573,0.02268081158399582,-0.0205092690885067
1768558587388814300,6.739814453125,0.0013662016717717052,0.0565548874437809,-0.0009339706157334149
1768558587398843400,6.749843505859375,-0.0028724854346364737,0.06737317889928818,-0.007763380650430918
1768558587408872200,6.7598720703125,-0.009545834735035896,0.09053309261798859,-0.021287178620696068
1768558587418901200,6.7699013671875,-0.002822950715199113,0.08415216207504272,0.00908750481903553
1768558587428929000,6.779928955078125,-0.020012591034173965,0.09061431884765625,-0.01812147907912731
1768558587438958000,6.7899580078125,0.003180613275617361,0.0912630707025528,-0.0014106763992458582
1768558587448987100,6.799987060546875,-0.006416087504476309,0.09820299595594406,-0.02040780335664749
1768558587459016200,6.81001611328125,-0.00058323226403445,0.10921330749988556,-0.013310745358467102
1768558587469045200,6.820045166015625,0.006993993651121855,0.09907571971416473,-0.014253770932555199
1768558587479073300,6.8300732421875,-0.006061621010303497,0.07953610271215439,-0.02154923416674137
1768558587489102000,6.84010205078125,-0.005020591430366039,0.010574613697826862,-0.0010279801208525896
1768558587499131100,6.850131103515625,-0.01997211016714573,-0.05397827923297882,-0.025661421939730644
1768558587509160200,6.86016015625,-0.014103301800787449,-0.0933440625667572,-0.012675847858190536
1768558587519189000,6.87018896484375,-0.018635470420122147,-0.09420879185199738,-0.02592640556395054
1768558587529217300,6.88021728515625,-0.01130858063697815,-0.1503215879201889,0.0000697748182574287
1768558587539246000,6.89024609375,-0.02106187492609024,-0.09255150705575943,-0.018320949748158455
1768558587549275100,6.900275146484375,0.004251736681908369,-0.049674611538648605,-0.001942509668879211
1768558587559304200,6.91030419921875,-0.013085708022117615,-0.01690974086523056,-0.00466505903750658
1768558587569333000,6.9203330078125,-0.00788295641541481,0.030231405049562454,0.01363245490938425
1768558587579362000,6.930362060546875,-0.006272010505199432,0.051723916083574295,-0.007965780794620514
1768558587589390300,6.940390380859375,0.0017670074012130499,0.04712836444377899,0.0029372002463787794
1768558587599419100,6.950419189453125,-0.006677077617496252,0.08269274979829788,-0.0005102616851218045
1768558587609448200,6.9604482421875,-0.008389489725232124,0.04941229149699211,-0.008585232309997082
1768558587619477200,6.970477294921875,-0.015004782006144524,0.017055150121450424,-0.011185809038579464
1768558587629506000,6.980506103515625,-0.0015779229579493403,-0.03863474354147911,-0.018675150349736214
1768558587639534300,6.990534423828125,-0.020686369389295578,-0.09656808525323868,-0.013114203698933125
1768558587649563100,7.000563232421875,-0.015200258232653141,-0.16433487832546234,-0.04645724594593048
1768558587659592200,7.01059228515625,-0.020985443145036697,-0.22093211114406586,-0.04639093577861786
1768558587669621200,7.020621337890625,-0.03359497711062431,-0.2324545532464981,-0.05848195031285286
1768558587679650300,7.030650390625,-0.030836742371320724,-0.27170848846435547,-0.06075495854020119
1768558587689678000,7.040677978515625,-0.03917935863137245,-0.2579745650291443,-0.07721276581287384
1768558587699707400,7.050707275390625,0.03966698423027992,-0.310748815536499,0.024993233382701874
1768558587709736200,7.060736083984375,0.0432707741856575,-0.23232857882976532,-0.07894089072942734
1768558587719765200,7.07076513671875,0.0671318992972374,-0.1854446977376938,-0.0515311025083065
1768558587729794300,7.080794189453125,0.06216749921441078,-0.1501234620809555,-0.03224342316389084
1768558587739822000,7.090822021484375,0.0680922344326973,-0.14292599260807037,-0.05272845923900604
1768558587749851100,7.10085107421875,0.10003764927387238,0.02455913834273815,-0.06915909796953201
1768558587759880200,7.110880126953125,0.07502710819244385,0.04778190329670906,-0.046612244099378586
1768558587769909200,7.1209091796875,0.15932254493236542,0.07958963513374329,-0.125748872756958
1768558587779938300,7.130938232421875,0.18626227974891663,0.21446356177330017,-0.15492700040340424
1768558587789967400,7.14096728515625,-0.23625300824642181,0.22754155099391937,0.3691050708293915
1768558587799995100,7.1509951171875,-0.0980227068066597,-0.1107344999909401,-0.016267919912934303
1768558587810024200,7.161024169921875,0.029317941516637802,0.22611862421035767,-0.01501330453902483
1768558587820053000,7.171052978515625,-0.03718145564198494,0.06274700164794922,0.05163682997226715
1768558587830082300,7.181082275390625,-0.024297082796692848,0.030599188059568405,0.005066930316388607
1768558587840111400,7.191111328125,-0.02971581742167473,0.033363550901412964,0.02870195172727108
1768558587850139100,7.20113916015625,-0.01179034635424614,0.06415954232215881,0.005967611446976662
1768558587860168200,7.211168212890625,-0.005583849735558033,0.08543660491704941,0.0017438378417864442
1768558587870197200,7.221197265625,-0.015957660973072052,0.10351307690143585,0.009125321172177792
1768558587880226000,7.23122607421875,-0.01131177693605423,0.09778568148612976,0.020806744694709778
1768558587890255000,7.241255126953125,0.001939313835464418,0.08998847752809525,-0.0034967304673045874
1768558587900284400,7.251284423828125,0.009285643696784973,0.08747312426567078,0.013510482385754585
1768558587910312200,7.261312255859375,-0.002481533447280526,0.09035786241292953,-0.004787032026797533
1768558587920341200,7.27134130859375,0.00689092930406332,0.07402815669775009,0.018083661794662476
1768558587930370000,7.2813701171875,0.014283065684139729,0.09551160782575607,0.0075846826657652855
1768558587940399000,7.291399169921875,0.010182330384850502,0.13423876464366913,0.028481442481279373
1768558587950428200,7.30142822265625,0.03118002414703369,0.14504987001419067,0.044979993253946304
1768558587960456200,7.311456298828125,0.042642269283533096,0.16875572502613068,0.04355626553297043
1768558587970485200,7.3214853515625,0.031063111498951912,0.1665482372045517,0.0737202912569046
1768558587980514300,7.331514404296875,0.045821283012628555,0.11864489316940308,0.0428641103208065
1768558587990543000,7.341543212890625,0.02714559994637966,0.050340935587882996,0.021090371534228325
1768558588000572200,7.351572265625,0.030795995146036148,-0.03729464113712311,0.0431852862238884
1768558588010601200,7.361601318359375,0.027816982939839363,-0.09749513119459152,0.06156456097960472
1768558588020629200,7.371629150390625,-0.039326366037130356,-0.14531324803829193,-0.08020588755607605
1768558588030658300,7.381658203125,-0.041373804211616516,-0.18031784892082214,-0.20661309361457825
1768558588040687000,7.39168701171875,0.0018213358707726002,-0.10481376200914383,0.07222119718790054
1768558588050716200,7.401716064453125,-0.019418172538280487,-0.07834913581609726,-0.11600303649902344
1768558588060745200,7.4117451171875,0.03244742006063461,-0.01107715256512165,0.0006567355012521148
1768558588070773200,7.421773193359375,-0.011176222003996372,0.014484932646155357,-0.01696353778243065
1768558588080802300,7.43180224609375,0.013114470057189465,0.011774900369346142,-0.018742794170975685
1768558588090831400,7.441831298828125,0.016923323273658752,0.026495790109038353,0.0178730059415102
1768558588100860200,7.451860107421875,0.0036780918017029762,-0.01577416993677616,-0.034454647451639175
1768558588110889200,7.46188916015625,0.007355917245149612,-0.09338001161813736,0.004748682491481304
1768558588120917000,7.4719169921875,-0.010568222030997276,-0.1610213816165924,-0.039023566991090775
1768558588130946000,7.481946044921875,-0.008173241280019283,-0.2531251907348633,-0.03629489243030548
1768558588140975400,7.491975341796875,-0.016707606613636017,-0.3416747748851776,-0.034213628619909286
1768558588151004200,7.502004150390625,-0.011831092648208141,-0.33352869749069214,-0.037265878170728683
1768558588161033200,7.512033203125,-0.02063150890171528,-0.33911919593811035,-0.0169755220413208
1768558588171062300,7.522062255859375,-0.017896974459290504,-0.24289733171463013,-0.03170520067214966
1768558588181089800,7.53208984375,-0.004159058444201946,-0.20356270670890808,-0.019825102761387825
1768558588191118800,7.542118896484375,0.002912965603172779,-0.12624715268611908,0.016822390258312225
1768558588201148000,7.55214794921875,0.009288307279348373,-0.05025811120867729,-0.00637880340218544
1768558588211177000,7.562177001953125,0.005949768237769604,-0.025970879942178726,0.02701297588646412
1768558588221206000,7.5722060546875,0.015119564719498158,-0.034631747752428055,-0.010273942723870277
1768558588231234800,7.58223486328125,0.0005656554130837321,-0.06239067390561104,0.009710950776934624
1768558588241262800,7.592262939453125,-0.00603365758433938,-0.12615127861499786,-0.01884585991501808
1768558588251292000,7.6022919921875,-0.021441109478473663,-0.18171413242816925,-0.03284236788749695
1768558588261320700,7.61232080078125,-0.01943202130496502,-0.13372184336185455,0.019304189831018448
1768558588271350000,7.62235009765625,-0.010665427893400192,-0.1835930049419403,-0.04759308695793152
1768558588281379000,7.632379150390625,-0.01561118382960558,-0.10933741182088852,-0.014663631096482277
1768558588291406800,7.64240673828125,-0.006616623606532812,-0.08537961542606354,0.02393942140042782
1768558588301436000,7.652435791015625,-0.014511564746499062,-0.07730943709611893,-0.025496039539575577
1768558588311464700,7.662464599609375,-0.006932474672794342,-0.14221519231796265,-0.009664079174399376
1768558588321493800,7.67249365234375,-0.01882535219192505,-0.17871807515621185,-0.034805383533239365
1768558588331522800,7.682522705078125,-0.006359096150845289,-0.18847164511680603,-0.0067569720558822155
1768558588341551900,7.6925517578125,-0.022059762850403786,-0.14876550436019897,-0.04289340600371361
1768558588351580000,7.702579833984375,-0.0037063213530927896,-0.05010870844125748,-0.014997058548033237
1768558588361609000,7.71260888671875,0.010435597039759159,-0.050331346690654755,-0.014595987275242805
1768558588371637800,7.7226376953125,-0.01389823853969574,-0.06988267600536346,-0.019340675324201584
1768558588381666800,7.732666748046875,0.0035417377948760986,-0.08045196533203125,-0.04944717884063721
1768558588391696000,7.74269580078125,-0.02653067745268345,-0.07726549357175827,-0.019090870395302773
1768558588401725000,7.752724853515625,-0.002517219865694642,-0.08206398040056229,-0.019091136753559113
1768558588411753000,7.7627529296875,-0.00974477268755436,-0.06328576058149338,-0.018200043588876724
1768558588421781800,7.77278173828125,-0.004832305945456028,-0.014060159213840961,-0.02117106504738331
1768558588431810800,7.782810791015625,0.003686347510665655,-0.012257465161383152,-0.004575310740619898
1768558588441839900,7.79283984375,0.000007989483492565341,-0.02768302708864212,-0.02869848906993866
1768558588451869000,7.802868896484375,-0.00947872269898653,-0.03278511017560959,-0.013628460466861725
1768558588461897000,7.81289697265625,-0.009163937531411648,-0.08667923510074615,-0.007045392412692308
1768558588471926000,7.822926025390625,-0.013920076191425323,-0.1091853454709053,-0.03645734488964081
1768558588481954800,7.832954833984375,-0.014273744076490402,-0.11168072372674942,-0.020441358909010887
1768558588491984000,7.84298388671875,-0.016802415251731873,-0.15035328269004822,-0.0160687156021595
1768558588502013000,7.853012939453125,-0.016269251704216003,-0.14020344614982605,0.0004916195175610483
1768558588512041700,7.863041748046875,0.0037854171823710203,-0.12855984270572662,-0.017136109992861748
1768558588522070000,7.873070068359375,-0.010934140533208847,-0.09537738561630249,0.018139056861400604
1768558588532099000,7.88309912109375,-0.0029981867410242558,-0.07430805265903473,-0.03957270830869675
1768558588542127900,7.8931279296875,-0.006710899528115988,-0.044253215193748474,0.022402243688702583
1768558588552157000,7.903156982421875,-0.001630387152545154,-0.011438276618719101,-0.015140869654715061
1768558588562186000,7.91318603515625,0.006673349067568779,0.009215336292982101,-0.006650712341070175
1768558588572214800,7.92321484375,0.0022945795208215714,0.006971889175474644,-0.017255952581763268
1768558588582243000,7.9332431640625,-0.0023558323737233877,0.005742840468883514,-0.006128199864178896
1768558588592272000,7.94327197265625,0.00015046859334688634,-0.04627375677227974,-0.009169796481728554
1768558588602301000,7.953301025390625,-0.004107659682631493,-0.07381323724985123,-0.04304014518857002
1768558588612330000,7.963330078125,-0.004206729121506214,-0.1293494701385498,-0.027826571837067604
1768558588622358800,7.97335888671875,-0.025469407439231873,-0.14018000662326813,-0.032700154930353165
1768558588632386800,7.98338671875,0.008130896836519241,-0.16491545736789703,-0.03749517723917961
1768558588642416000,7.993416015625,-0.0029313412960618734,-0.16369998455047607,-0.0038575888611376286
1768558588652445000,8.00344482421875,-0.009058210067451,-0.1518654227256775,-0.02232314832508564
1768558588662474000,8.013473876953125,0.002862099092453718,-0.12775343656539917,-0.022122878581285477
1768558588672503000,8.0235029296875,-0.009029713459312916,-0.09519442915916443,0.005541239399462938
1768558588682531800,8.03353173828125,-0.013825800269842148,-0.09821951389312744,-0.032099347561597824
1768558588692560000,8.043559814453126,-0.0016200009267777205,-0.06438112258911133,-0.021457089111208916
1768558588702588700,8.053588623046876,-0.006593720521777868,0.007740211207419634,-0.012521117925643921
1768558588712618000,8.063617919921874,0.026506442576646805,0.018457038328051567,-0.02171514928340912
1768558588722647000,8.07364697265625,-0.011653460562229156,0.10550592094659805,0.012798885814845562
1768558588732675800,8.08367578125,0.017051687464118004,0.10685534030199051,-0.024383103474974632
1768558588742705000,8.093704833984376,-0.007623298559337854,0.17021487653255463,0.018602978438138962
1768558588752733000,8.10373291015625,-0.0011651329696178436,0.18103529512882233,-0.007024353835731745
1768558588762761700,8.11376171875,0.004673315212130547,0.13164883852005005,-0.00618093041703105
1768558588772790800,8.123790771484375,-0.00037470675306394696,0.034931086003780365,0.005932191386818886
1768558588782820000,8.133820068359375,-0.014536598697304726,-0.017655426636338234,-0.013306484557688236
1768558588792849000,8.143848876953125,-0.013562946580350399,-0.03491697087883949,-0.004686630796641111
1768558588802878000,8.1538779296875,-0.009942112490534782,-0.053836334496736526,-0.016829047352075577
1768558588812905700,8.16390576171875,-0.0022029669489711523,-0.05174495279788971,-0.019717512652277946
1768558588822934800,8.173934814453125,-0.011460114270448685,-0.06452067196369171,-0.02124510146677494
1768558588832963800,8.1839638671875,-0.008537295274436474,-0.059472646564245224,-0.0064895907416939735
1768558588842993000,8.193992919921875,-0.0036762275267392397,-0.031380027532577515,-0.015422099269926548
1768558588853022000,8.20402197265625,-0.0027806065045297146,0.008746087551116943,-0.02261902578175068
1768558588863051000,8.214051025390624,0.014154435135424137,-0.003338538808748126,0.0007177218794822693
1768558588873078800,8.224078857421874,-0.018986208364367485,0.012031096033751965,-0.023501863703131676
1768558588883107800,8.23410791015625,0.010342651978135109,0.006471747532486916,-0.029881466180086136
1768558588893137000,8.244136962890625,-0.01267211977392435,0.007538343779742718,-0.00646562222391367
1768558588903165700,8.254165771484375,-0.00039547940832562745,0.0027089675422757864,-0.016453808173537254
1768558588913195000,8.264195068359374,-0.013069196604192257,-0.031500935554504395,0.0076238312758505344
1768558588923224000,8.27422412109375,-0.01188249234110117,-0.04272589087486267,-0.042082205414772034
1768558588933251800,8.284251953125,-0.013881993480026722,-0.03620860353112221,-0.05006716027855873
1768558588943281000,8.294281005859375,0.0086616650223732,-0.06969811767339706,-0.03817242011427879
1768558588953310000,8.30431005859375,0.15927301347255707,-0.08615033328533173,0.0681484267115593
1768558588963338800,8.3143388671875,0.019651997834444046,0.0338682197034359,-0.05886251851916313
1768558588973367800,8.324367919921874,0.06882460415363312,0.011889416724443436,-0.03881477192044258
1768558588983397000,8.334397216796875,0.02112525887787342,0.08225226402282715,-0.0019920445047318935
1768558588993425000,8.3444248046875,0.04748709127306938,0.11466293036937714,-0.020008062943816185
1768558589003454000,8.354453857421875,0.055277638137340546,0.20800858736038208,-0.06361812353134155
1768558589013482800,8.364482666015626,0.03296380862593651,0.2553401589393616,-0.05253484845161438
1768558589023511800,8.37451171875,0.04337890073657036,0.17749249935150146,-0.12518881261348724
1768558589033540900,8.384540771484374,0.017545970156788826,-0.04627455398440361,-0.2892533838748932
1768558589043570000,8.39456982421875,0.019885823130607605,0.036307938396930695,-0.3188919723033905
1768558589053598000,8.404597900390625,0.01239222101867199,-0.018023476004600525,-0.30235159397125244
1768558589063627000,8.414626953125,-0.008745288476347923,0.020845893770456314,-0.1310051530599594
1768558589073655800,8.42465576171875,-0.0041004689410328865,0.004624845460057259,0.029691848903894424
1768558589083684900,8.434684814453124,-0.014600514434278011,-0.0028597023338079453,0.13872726261615753
1768558589093714000,8.4447138671875,-0.022354574874043465,-0.004437359049916267,0.2215489000082016
1768558589103742700,8.45474267578125,-0.012143481522798538,-0.011458250693976879,0.25931891798973083
1768558589113771000,8.46477099609375,-0.004920190200209618,-0.016438627615571022,0.22720865905284882
1768558589123799800,8.4747998046875,0.005526592023670673,-0.014215420931577682,0.13265471160411835
1768558589133828900,8.484828857421874,0.009800964966416359,-0.0049494849517941475,0.007182811852544546
1768558589143858000,8.49485791015625,-0.0065447185188531876,0.004859203472733498,-0.10578741878271103
1768558589153886700,8.50488671875,-0.02123737707734108,0.00583791546523571,-0.176742285490036
1768558589163915800,8.514915771484375,-0.010761034674942493,0.007700530346482992,-0.19833971560001373
1768558589173944000,8.524944091796876,0.02666649781167507,0.012378105893731117,0.07100067287683487
1768558589183973600,8.5349736328125,-0.019949207082390785,-0.002240783767774701,0.2283697873353958
1768558589194002700,8.545002685546875,-0.02660045213997364,-0.008450476452708244,0.14679290354251862
1768558589204031500,8.555031494140625,0.013175190426409245,-0.007407316006720066,0.018696988001465797
1768558589214060500,8.565060546875,0.016894560307264328,0.0006492786924354732,-0.10470164567232132
1768558589224089600,8.575089599609376,-0.022305306047201157,0.009912817738950253,-0.18766896426677704
1768558589234117600,8.58511767578125,-0.02322223223745823,0.010719755664467812,-0.21356287598609924
1768558589244146700,8.595146728515624,0.02081420086324215,0.000535561703145504,-0.1950395256280899
1768558589254175700,8.60517578125,0.014138455502688885,-0.00014940333494450897,-0.1519905924797058
1768558589264204500,8.61520458984375,-0.01829192228615284,0.004394215997308493,-0.09654251486063004
1768558589274233600,8.625233642578126,-0.0015017564874142408,-0.0008380967774428427,-0.03710715472698212
1768558589284262700,8.6352626953125,0.0051566786132752895,-0.0046453517861664295,0.021221399307250977
1768558589294290400,8.64529052734375,-0.01593928597867489,-0.0017680726014077663,0.0753546729683876
1768558589304319700,8.65531982421875,-0.010182596743106842,-0.005576126743108034,0.1277310699224472
1768558589314348500,8.6653486328125,-0.004463191609829664,-0.008054464124143124,0.1549360603094101
1768558589324377600,8.675377685546875,-0.01044491771608591,-0.006154032424092293,0.15527400374412537
1768558589334406700,8.68540673828125,-0.00857511255890131,-0.005465338937938213,0.12379171699285507
1768558589344435500,8.695435546875,0.00378967821598053,-0.0054610781371593475,0.059843894094228745
1768558589354463500,8.70546337890625,0.0025779400020837784,-0.0027031085919588804,-0.0166183914989233
1768558589364492500,8.715492431640625,-0.011169031262397766,0.003943076357245445,-0.08575139194726944
1768558589374521600,8.725521484375,-0.00848722830414772,0.0043992758728563786,-0.12397440522909164
1768558589384550700,8.735550537109376,0.0040948763489723206,0.0034850125666707754,-0.13094790279865265
1768558589394579700,8.745579833984374,0.003974235150963068,0.0020562265999615192,-0.11554710566997528
1768558589404608500,8.7556083984375,-0.006615824531763792,0.0028447885997593403,-0.08395508676767349
1768558589414636500,8.765636474609375,-0.0019065570086240768,-0.00036991306114941835,-0.040409740060567856
1768558589424665300,8.775665283203125,-0.0032463932875543833,-0.003667971817776561,0.007517038378864527
1768558589434694700,8.785694580078125,-0.008641424588859081,-0.0032533176708966494,0.05000351369380951
1768558589444723700,8.7957236328125,-0.006912766955792904,-0.00509782275184989,0.07791183888912201
1768558589454752500,8.80575244140625,-0.004483697935938835,-0.0062392535619437695,0.0945051982998848
1768558589464781600,8.815781494140625,-0.00875221285969019,-0.006171077024191618,0.09094642102718353
1768558589474810600,8.825810546875,-0.005870139691978693,-0.002971288748085499,0.06778544187545776
1768558589484838400,8.83583837890625,-0.0008484831196255982,-0.002639192622154951,0.027521107345819473
1768558589494867500,8.845867431640626,-0.0011259844759479165,-0.001812014845199883,-0.01673796772956848
1768558589504896800,8.855896728515624,-0.006839796435087919,-0.00011771172285079956,-0.05504833906888962
1768558589514925600,8.865925537109375,-0.0025121597573161125,0.0032956618815660477,-0.07716349512338638
1768558589524954600,8.87595458984375,0.001113201375119388,0.00008602010348113254,-0.08105304092168808
1768558589534983700,8.885983642578125,-0.0021646174136549234,0.0022501046769320965,-0.07172372192144394
1768558589545011500,8.896011474609375,-0.003294330323114991,0.000565389113035053,-0.04958007112145424
1768558589555040500,8.90604052734375,-0.002548911375924945,-0.0007507451227866113,-0.02309999242424965
1768558589565069600,8.916069580078124,-0.004819788970053196,-0.0018402442801743746,0.0059993029572069645
1768558589575098600,8.9260986328125,-0.004664793144911528,-0.0030072415247559547,0.03341148793697357
1768558589585127700,8.936127685546875,-0.005032841581851244,-0.004907939583063126,0.05134201794862747
1768558589595156700,8.94615673828125,-0.0049281795509159565,-0.0038211036007851362,0.05806117132306099
1768558589605184500,8.9561845703125,-0.004845088813453913,-0.004827511962503195,0.052908755838871
1768558589615213600,8.966213623046874,-0.004767591133713722,-0.003582217963412404,0.035526301711797714
1768558589625242400,8.976242431640625,-0.0016373114194720984,-0.002028529765084386,0.009170595556497574
1768558589635271400,8.986271484375,-0.0030304109677672386,-0.0006388923502527177,-0.019331885501742363
1768558589645300700,8.99630078125,-0.0015219965716823936,-0.00013422331539914012,-0.03982624039053917
1768558589655329500,9.00632958984375,-0.0009717874927446246,-0.0006471481174230576,-0.05194602161645889
1768558589665357600,9.016357666015624,-0.0018908443162217736,0.0017219999572262168,-0.05156465619802475
1768558589675386600,9.02638671875,-0.003936951048672199,-0.0007933556917123497,-0.04302043840289116
1768558589685415400,9.03641552734375,-0.000916393706575036,-0.0007952199084684253,-0.02744920179247856
1768558589695444500,9.046444580078125,-0.00520754512399435,-0.0014261227333918214,-0.010099506005644798
1768558589705473500,9.0564736328125,-0.0038687740452587605,-0.0015736619243398309,0.010605240240693092
1768558589715502600,9.066502685546874,-0.005110606085509062,-0.001347293145954609,0.02448190748691559
1768558589725531600,9.07653173828125,-0.00546294217929244,-0.0035417377948760986,0.03296620398759842
1768558589735559400,9.086559326171875,-0.006353503558784723,-0.003323891432955861,0.03490924835205078
1768558589745588500,9.09658837890625,-0.0036280243657529354,-0.0035606464371085167,0.02646516263484955
1768558589755617500,9.106617431640625,-0.005060005933046341,-0.002569950418546796,0.013279852457344532
1768558589765646300,9.116646240234376,-0.003309244057163596,-0.002432531211525202,-0.005605954211205244
1768558589775675600,9.126675537109374,-0.002371012233197689,-0.0003246393462177366,-0.020242687314748764
1768558589785704700,9.13670458984375,-0.003096723696216941,-0.001261273049749434,-0.03140852227807045
1768558589795732500,9.146732421875,-0.0021603561472147703,-0.0007856325246393681,-0.03467968478798866
1768558589805761500,9.156761474609375,-0.003931092098355293,-0.0002615224220789969,-0.031371504068374634
1768558589815790600,9.16679052734375,0.017489511519670486,0.0021584921050816774,0.01715475134551525
1768558589825819400,9.1768193359375,0.0026546388398855925,-0.3398073613643646,0.20180556178092957
1768558589835848400,9.186848388671875,-0.005140699911862612,-0.4214732050895691,0.21126483380794525
1768558589845877800,9.196877685546875,0.06402985006570816,-0.45889008045196533,0.02359161153435707
1768558589855906600,9.206906494140625,0.012032960541546345,-0.6564223170280457,-0.1573512703180313
1768558589865934600,9.2169345703125,-0.11500035226345062,-0.9938363432884216,-0.30743902921676636
1768558589875963400,9.22696337890625,-0.08016407489776611,-1.2363137006759644,-0.3700694143772125
1768558589885992400,9.236992431640624,-0.022105569019913673,-1.223556637763977,-0.37530678510665894
1768558589896021500,9.247021484375,-0.042563971132040024,-1.1085392236709595,-0.35777783393859863
1768558589906050600,9.257050537109375,-0.022300777956843376,-0.928142786026001,-0.2789645195007324
1768558589916079600,9.26707958984375,-0.0016636766958981752,-0.6954056620597839,-0.23780962824821472
1768558589926107600,9.277107666015626,0.005821403581649065,-0.42170223593711853,-0.2415471076965332
1768558589936136400,9.287136474609374,0.01528521254658699,-0.22088125348091125,-0.23893748223781586
1768558589946165500,9.29716552734375,0.03411589190363884,-0.006603574380278587,-0.22672928869724274
1768558589956194600,9.307194580078125,0.04459835961461067,0.3230465054512024,0.02592720463871956
1768558589966223400,9.317223388671875,0.07005498558282852,0.32466942071914673,0.5979598164558411
1768558589976252700,9.327252685546876,-0.005961486138403416,-0.07049839943647385,1.0269665718078613
1768558589986280700,9.33728076171875,0.0461491197347641,-0.32447928190231323,1.0504729747772217
1768558589996309500,9.3473095703125,0.3101101815700531,-0.38556739687919617,0.10070157796144485
1768558590006338600,9.357338623046875,0.13922952115535736,-0.31766238808631897,-0.20298027992248535
1768558590016367600,9.36736767578125,-0.15557600557804108,-0.24505876004695892,-0.14736308157444
1768558590026396400,9.377396484375,-0.1832694262266159,-0.13034948706626892,-0.1082572340965271
1768558590036425500,9.387425537109374,-0.058947205543518066,0.0638120025396347,-0.11223146319389343
1768558590046454800,9.397454833984375,0.03093581087887287,0.2734810709953308,0.0243157260119915
1768558590056482600,9.407482666015625,0.05489147827029228,0.4308699071407318,-0.01121909823268652
1768558590066511600,9.41751171875,0.0336514376103878,0.4906541407108307,0.03439765423536301
1768558590076540400,9.42754052734375,0.029443375766277313,0.4042888879776001,0.019057847559452057
1768558590086569500,9.437569580078126,0.03319763392210007,0.33101707696914673,0.014840731397271156
1768558590096598500,9.4475986328125,0.020173445343971252,0.23156212270259857,0.03802221640944481
1768558590106627600,9.457627685546875,0.0108872689306736,0.1806560605764389,0.022539930418133736
1768558590116656600,9.46765673828125,0.007792143151164055,0.2860797047615051,0.06997641921043396
1768558590126684700,9.4776845703125,0.012109659612178802,0.2630710303783417,0.03912556543946266
1768558590136713500,9.48771337890625,0.016523849219083786,0.21062222123146057,0.021808626130223274
1768558590146742500,9.497742431640624,0.003242398612201214,0.08773251622915268,0.0010833739070221782
1768558590156771600,9.507771484375,-0.01534726470708847,0.006315952632576227,0.004137753508985043
1768558590166800400,9.51780029296875,-0.1199522390961647,0.31700244545936584,0.20230384171009064
1768558590176829700,9.52782958984375,-0.26002785563468933,1.0684064626693726,0.0685092881321907
1768558590186857500,9.537857421875,-0.116306371986866,1.1556023359298706,0.46460601687431335
1768558590196886300,9.54788623046875,-0.037752438336610794,1.0362883806228638,0.14251506328582764
1768558590206915300,9.557915283203124,0.024038223549723625,0.9360073804855347,0.09372463077306747
1768558590216944400,9.5679443359375,0.027826571837067604,0.9284282922744751,0.09187932312488556
1768558590226973200,9.57797314453125,0.04499970003962517,0.8292223215103149,0.03428740054368973
1768558590237002500,9.58800244140625,0.031204525381326675,0.6512089371681213,0.043603405356407166
1768558590247031600,9.598031494140624,-0.0032232238445430994,0.49151355028152466,0.06447486579418182
1768558590257059300,9.608059326171874,-0.0221463143825531,0.2900715172290802,0.07152984291315079
1768558590267088400,9.61808837890625,-0.0396382212638855,0.04825594648718834,0.08198994398117065
1768558590277117400,9.628117431640625,-0.04215863719582558,-0.09952845424413681,0.02797064743936062
1768558590287146200,9.638146240234375,-0.006901848129928112,-0.10418685525655746,0.028129372745752335
1768558590297175300,9.64817529296875,-0.013332050293684006,-0.12459465861320496,0.0003486077766865492
1768558590307204600,9.65820458984375,-0.006590258330106735,-0.2488420456647873,0.03827761486172676
1768558590317232400,9.668232421875,-0.02419694885611534,-0.31846824288368225,0.0023289343807846308
1768558590327261400,9.678261474609375,-0.0002697782183531672,-0.3783036172389984,0.019233083352446556
1768558590337290200,9.688290283203125,-0.018447982147336006,-0.3515183627605438,0.010565824806690216
1768558590347319300,9.6983193359375,0.02123391628265381,-0.3021220266819,0.04204172641038895
1768558590357348400,9.708348388671874,0.04345479980111122,-0.03713618218898773,0.012163721956312656
1768558590367377400,9.71837744140625,0.04378263279795647,0.20300237834453583,0.0676347017288208
1768558590377406500,9.728406494140625,0.06424902379512787,0.355694442987442,0.05044879391789436
1768558590387434500,9.7384345703125,0.04872572794556618,0.41182082891464233,0.11110095679759979
1768558590397463300,9.74846337890625,0.040052078664302826,0.440687894821167,0.07228165119886398
1768558590407492400,9.758492431640626,0.014568289741873741,0.4339357316493988,0.08603315055370331
1768558590417521400,9.768521484375,0.018678613007068634,0.3418223261833191,0.10293463617563248
1768558590427550200,9.77855029296875,0.005567338317632675,0.23306281864643097,0.08470024168491364
1768558590437579500,9.78857958984375,0.015431154519319534,0.05102776363492012,0.13286644220352173
1768558590447608600,9.798608642578126,0.07869667559862137,-0.1407794952392578,0.28662458062171936
1768558590457636400,9.80863623046875,0.04205317795276642,0.0648365169763565,-0.11984091997146606
1768558590467665400,9.81866552734375,-0.06347031891345978,0.08563581109046936,-0.01230646762996912
1768558590477694500,9.828694580078125,-0.01853640004992485,-0.12600266933441162,-0.009463809430599213
1768558590487723300,9.83872314453125,-0.007899735122919083,0.09659471362829208,-0.012252938002347946
1768558590497752300,9.84875244140625,0.05801057070493698,0.5215793251991272,0.05393353849649429
1768558590507781600,9.85878173828125,0.0969366654753685,0.8122590780258179,0.0776660293340683
1768558590517810400,9.868810546875,0.09124309569597244,0.973426103591919,0.05411862954497337
1768558590527838500,9.87883837890625,0.059731241315603256,0.9596509337425232,0.051534298807382584
1768558590537867300,9.8888671875,0.031326230615377426,0.7749969363212585,0.02334207482635975
1768558590547896300,9.898896240234375,-0.022900788113474846,0.5479022264480591,-0.019328691065311432
1768558590557925400,9.90892529296875,-0.03225993365049362,0.3460655212402344,-0.13850514590740204
1768558590567954200,9.9189541015625,-0.06094777211546898,0.2084416151046753,-0.08675247430801392
1768558590577983500,9.9289833984375,0.01056262943893671,0.05348053574562073,-0.030794929713010788
1768558590588011500,9.939011474609375,0.007965780794620514,0.025562085211277008,-0.021087441593408585
1768558590598040300,9.949040283203125,0.03133795037865639,-0.06462612748146057,0.08572635799646378
1768558590608069400,9.9590693359375,0.08443472534418106,-0.22339794039726257,-0.045757900923490524
1768558590618098400,9.969098388671876,-0.013608220033347607,-0.2840074896812439,0.027994882315397263
1768558590628127200,9.979127197265624,-0.11112838238477707,-0.30474260449409485,-0.07516532391309738
1768558590638156300,9.98915625,-0.1297052651643753,-0.20072990655899048,-0.0834387019276619
1768558590648185600,9.999185546875,-0.03399977833032608,-0.05638977140188217,-0.015626629814505577
1768558590658213400,10.00921337890625,-0.0037800907157361507,0.123563751578331,-0.04961974918842316
1768558590668242400,10.019242431640626,-0.044191163033246994,0.13591095805168152,-0.11344986408948898
1768558590678271200,10.029271240234374,-0.03407488018274307,-0.017534784972667694,-0.07758880406618118
1768558590688300300,10.03930029296875,-0.08887740969657898,-0.2283245176076889,-0.09747062623500824
1768558590698329300,10.049329345703125,-0.08869631588459015,-0.4453199505805969,-0.0537862665951252
1768558590708358400,10.0593583984375,-0.06382957845926285,-0.4669032692909241,-0.05747527629137039
1768558590718387500,10.069387451171876,-0.028012992814183235,-0.48522821068763733,-0.007953530177474022
1768558590728415500,10.07941552734375,-0.008831574581563473,-0.45951005816459656,-0.03891996666789055
1768558590738444300,10.0894443359375,-0.0012767193838953972,-0.4347096383571625,-0.03574361652135849
1768558590748473300,10.099473388671875,-0.013136841356754303,-0.392532616853714,-0.043583162128925323
1768558590758502400,10.10950244140625,-0.017244767397642136,-0.3339073956012726,-0.06238001957535744
1768558590768531200,10.11953125,-0.020083431154489517,-0.2289692610502243,-0.07378420978784561
1768558590778560500,10.129560546875,-0.05114307999610901,-0.15976622700691223,-0.030606910586357117
1768558590788589600,10.139589599609375,-0.05046876519918442,-0.18837523460388184,-0.04651450365781784
1768558590798617300,10.149617431640625,-0.037274666130542755,-0.17971543967723846,-0.04083744436502457
1768558590808646400,10.159646484375,-0.016861271113157272,-0.1716276854276657,-0.014070278964936733
1768558590818675200,10.16967529296875,-0.031008515506982803,-0.2230631709098816,-0.026431074365973473
1768558590828704300,10.179704345703126,-0.03467089682817459,-0.3119722604751587,-0.024105336517095566
1768558590838733300,10.1897333984375,-0.05579322576522827,-0.3784730136394501,-0.014296380802989006
1768558590848762600,10.1997626953125,-0.08600971847772598,-0.30422088503837585,-0.0639835074543953
1768558590858791400,10.20979150390625,-0.07127337902784348,-0.28163275122642517,-0.040283240377902985
1768558590868819500,10.2198193359375,-0.06291504949331284,-0.135109081864357,-0.02178598940372467
1768558590878848300,10.22984814453125,-0.014691594056785107,0.032768066972494125,-0.013403955847024918
1768558590888877300,10.239877197265624,0.036866672337055206,0.08669308573007584,-0.007948470301926136
1768558590898906400,10.24990625,0.010480870492756367,0.11395320296287537,0.006226204335689545
1768558590908935400,10.259935302734375,0.00031132352887652814,0.031259119510650635,0.009807889349758625
1768558590918964500,10.269964599609375,-0.040292028337717056,-0.05567151680588722,0.025135712698101997
1768558590928993500,10.27999365234375,-0.03939667344093323,-0.1803513914346695,0.006661631166934967
1768558590939021300,10.290021240234376,-0.03243676945567131,-0.2849459946155548,0.02226003259420395
1768558590949050400,10.30005029296875,-0.033601369708776474,-0.34068408608436584,-0.0015640745405107737
1768558590959079400,10.310079345703125,-0.022468557581305504,-0.34830525517463684,-0.012020976282656193
1768558590969108200,10.320108154296875,-0.015221296809613705,-0.2794015407562256,-0.006600378546863794
1768558590979137500,10.330137451171876,0.004376638680696487,-0.2252299189567566,-0.006079464219510555
1768558590989166600,10.34016650390625,0.00926114246249199,-0.2585700452327728,-0.010990865528583527
1768558590999194400,10.3501943359375,-0.005343632772564888,-0.3111160695552826,-0.005579588934779167
1768558591009223400,10.360223388671875,0.002808303339406848,-0.3572121858596802,-0.008037153631448746
1768558591019252200,10.370252197265625,-0.007588943932205439,-0.3734273910522461,-0.004369981121271849
1768558591029281300,10.38028125,-0.018878882750868797,-0.378745436668396,-0.01218422781676054
1768558591039310300,10.390310302734376,-0.009825199842453003,-0.3755595088005066,-0.004200603812932968
1768558591049339400,10.40033935546875,-0.001493234420195222,-0.3110196590423584,0.004060255363583565
1768558591059368400,10.410368408203125,0.01287718303501606,-0.25586560368537903,0.02582680433988571
1768558591069397500,10.4203974609375,0.009564743377268314,-0.2078418731689453,0.011039867997169495
1768558591079425300,10.43042529296875,0.007227818947285414,-0.2257857322692871,0.04387584328651428
1768558591089454300,10.440454345703126,0.020358001813292503,-0.20527246594429016,-0.0012844426091760397
1768558591099483400,10.4504833984375,0.002698314841836691,-0.30116143822669983,0.029928337782621384
1768558591109512400,10.460512451171875,-0.010302438400685787,-0.3917997181415558,-0.017482852563261986
1768558591119541500,10.47054150390625,0.008236091583967209,-0.5280137658119202,-0.03325941786170006
1768558591129570600,10.480570556640625,-0.01936863735318184,-0.628747284412384,0.0026546388398855925
1768558591139598300,10.490598388671875,-0.0202163215726614,-0.7440158128738403,-0.00199310970492661
1768558591149627400,10.50062744140625,-0.011598066426813602,-0.7761420607566833,-0.05247386172413826
1768558591159656200,10.51065625,-0.02196255698800087,-0.8317177295684814,-0.029873210936784744
1768558591169685200,10.520685302734375,-0.023072829470038414,-0.6943068504333496,-0.04127579927444458
1768558591179714600,10.530714599609375,0.008196677081286907,-0.5902787446975708,0.003356115659698844
1768558591189742600,10.54074267578125,-0.01750841923058033,-0.3998856246471405,-0.04975051060318947
1768558591199771600,10.550771728515626,0.0005030711181461811,-0.32437407970428467,-0.013979731127619743
1768558591209800700,10.56080078125,-0.004216050263494253,-0.23684556782245636,-0.01985999196767807
1768558591219828500,10.570828369140624,-0.001728657865896821,-0.16933682560920715,-0.012175706215202808
1768558591229857800,10.58085791015625,-0.0012093414552509785,-0.10519246757030487,-0.019159313291311264
1768558591239886800,10.590886962890625,-0.008842493407428265,-0.0727815255522728,-0.0028485171496868134
1768558591249915600,10.60091552734375,-0.000248472933890298,-0.05826810002326965,-0.017666345462203026
1768558591259944700,10.61094482421875,-0.008623315952718258,-0.14493109285831451,0.011508584022521973
1768558591269973800,10.620973876953125,-0.014066018164157867,-0.1720239669084549,-0.020011791959404945
1768558591280002600,10.63100244140625,0.004739894066005945,-0.30427706241607666,0.013413011096417904
1768558591290030600,10.641030517578125,-0.02882099524140358,-0.3005976378917694,-0.022659773007035255
1768558591300059600,10.6510595703125,-0.016276175156235695,-0.35882845520973206,-0.03591592237353325
1768558591310088700,10.661088623046876,-0.017666079103946686,-0.3886263072490692,0.0027270768769085407
1768558591320117800,10.67111767578125,-0.029531527310609818,-0.3495981991291046,-0.03075658157467842
1768558591330146600,10.681146484375,-0.031979769468307495,-0.27678605914115906,-0.022840866819024086
1768558591340175600,10.691175537109375,-0.03003433160483837,-0.16949687898159027,-0.012529374100267887
1768558591350204700,10.70120458984375,-0.015321165323257446,-0.13223686814308167,-0.03320109471678734
1768558591360232700,10.711232666015626,-0.013849502429366112,-0.13469310104846954,-0.015417305752635002
1768558591370261800,10.72126171875,-0.02539936639368534,-0.08440382778644562,-0.059242285788059235
1768558591380290800,10.731290771484375,0.007072290405631065,-0.16192445158958435,-0.016286561265587807
1768558591390319600,10.741319580078125,-0.013493171893060207,-0.16227678954601288,0.006330067757517099
1768558591400348700,10.7513486328125,-0.023926105350255966,-0.22927314043045044,0.014930480159819126
1768558591410377700,10.761377685546876,-0.019815249368548393,-0.29630863666534424,-0.03182104602456093
1768558591420406500,10.771406494140624,-0.007621966768056154,-0.3388044238090515,0.01822640746831894
1768558591430434800,10.781434814453124,-0.012057994492352009,-0.3114188611507416,-0.032233305275440216
1768558591440463600,10.791463623046875,-0.020487964153289795,-0.3729110062122345,-0.021795043721795082
1768558591450492700,10.80149267578125,-0.0002825613773893565,-0.39381226897239685,-0.013708887621760368
1768558591460521700,10.811521728515626,-0.018004832789301872,-0.3906441926956177,-0.021800104528665543
1768558591470550500,10.821550537109376,-0.024276843294501305,-0.4235304892063141,-0.0033563817851245403
1768558591480579600,10.83157958984375,-0.05150739848613739,-0.33558225631713867,-0.055149804800748825
1768558591490608600,10.841608642578125,-0.0008205199264921248,-0.31801366806030273,-0.03543415665626526
1768558591500636700,10.85163671875,-0.026576217263936996,-0.24994271993637085,-0.004259992390871048
1768558591510665700,10.861665771484375,-0.026636671274900436,-0.23917530477046967,-0.023197464644908905
1768558591520694800,10.87169482421875,-0.013363475911319256,-0.16485260426998138,0.01776301860809326
1768558591530723600,10.8817236328125,-0.011714180000126362,-0.08413724601268768,-0.025246767327189445
1768558591540752600,10.891752685546875,0.012709403410553932,-0.09579337388277054,-0.028861742466688156
1768558591550781700,10.90178173828125,-0.002246642718091607,-0.06748530268669128,-0.006356698926538229
1768558591560810500,10.911810546875,-0.004539624322205782,-0.08637989312410355,-0.019993947818875313
1768558591570838800,10.9218388671875,0.005200620740652084,-0.08897567540407181,-0.043728306889534
1768558591580867600,10.93186767578125,-0.0007358313887380064,-0.12775343656539917,-0.05303152650594711
1768558591590896600,10.941896728515625,-0.013360812328755856,-0.1201503723859787,-0.022851519286632538
1768558591600925700,10.95192578125,-0.010520817711949348,-0.04680505394935608,-0.05527923256158829
1768558591610954800,10.961954833984375,0.004870389122515917,0.00977300200611353,-0.06501761823892593
1768558591620983600,10.971983642578126,0.016287360340356827,0.12158315628767014,-0.06167534738779068
1768558591631012600,10.9820126953125,0.02780659683048725,0.2008659988641739,-0.04939870908856392
1768558591641040600,10.99204052734375,0.15785488486289978,0.2117745727300644,0.03514467179775238
1768558591651069700,11.002069580078125,0.1774461567401886,0.3194219470024109,-0.0982445478439331
1768558591661098800,11.0120986328125,0.19778764247894287,0.298910528421402,-0.09371557086706161
1768558591671127600,11.02212744140625,-0.40204277634620667,2.2278337478637695,-0.3101797103881836
1768558591681156600,11.032156494140626,-0.13378523290157318,-1.1036227941513062,0.7604421973228455
1768558591691185700,11.042185546875,-0.17345941066741943,-0.18094581365585327,0.044256143271923065
1768558591701214500,11.05221435546875,-0.01936730556190014,0.22691810131072998,0.0010873686987906694
1768558591711243500,11.062243408203125,-0.0097423754632473,0.16956159472465515,0.08056408166885376
1768558591721271800,11.072271728515625,-0.012206865474581718,0.1393086165189743,0.05867556482553482
1768558591731300600,11.082300537109376,-0.0014980280539020896,0.1306445598602295,0.02544890157878399
1768558591741329700,11.09232958984375,0.004022172186523676,0.14592711627483368,0.07709185779094696
1768558591751358700,11.102358642578125,0.03123009018599987,0.1697070151567459,-0.0034072482958436012
1768558591761387500,11.112387451171875,0.031497471034526825,0.13236922025680542,0.0390416756272316
1768558591771416600,11.12241650390625,0.018568357452750206,0.13322703540325165,0.0370139442384243
1768558591781445600,11.132445556640626,0.03207617625594139,0.056541573256254196,-0.020771857351064682
1768558591791473700,11.1424736328125,0.03959161788225174,0.024943433701992035,0.009585249237716198
1768558591801502700,11.152502685546875,0.0046570696868002415,0.02828889526426792,0.010434531606733799
1768558591811531500,11.162531494140625,0.026387132704257965,-0.005983057431876659,0.01486256904900074
1768558591821560600,11.172560546875,0.027040937915444374,0.0033372072502970695,0.03279896080493927
1768558591831589600,11.182589599609376,0.003329750383272767,0.05215348303318024,0.018091652542352676
1768558591841618400,11.192618408203124,0.0015912387752905488,0.07636294513940811,0.005538576282560825
1768558591851647500,11.2026474609375,-0.025855299085378647,0.1782914400100708,-0.003982490859925747
1768558591861675800,11.21267578125,-0.030186131596565247,0.17470256984233856,-0.07422363013029099
1768558591871704600,11.22270458984375,-0.10667504370212555,0.15837472677230835,-0.3019894063472748
1768558591881733600,11.232733642578125,-0.016999224200844765,0.14117176830768585,0.04313681647181511
1768558591891762700,11.2427626953125,-0.0246046781539917,0.3725045919418335,-0.07699065655469894
1768558591901791500,11.25279150390625,0.002292981604114175,0.24232156574726105,-0.009149023331701756
1768558591911820500,11.262820556640625,-0.011319499462842941,0.2529073655605316,-0.03074166737496853
1768558591921849600,11.272849609375,-0.020497817546129227,0.22761905193328857,-0.008681639097630978
1768558591931878700,11.282878662109376,-0.004689027555286884,0.2245958298444748,-0.019575566053390503
1768558591941906700,11.29290673828125,-0.011360778473317623,0.2397092580795288,-0.02502359449863434
1768558591951935500,11.302935546875,0.00809334684163332,0.2916369140148163,0.0005379585199989378
1768558591961964500,11.312964599609375,0.0031185615807771683,0.3369748294353485,0.006780674215406179
1768558591971993600,11.32299365234375,0.028262265026569366,0.42719048261642456,0.02840607427060604
1768558591982022700,11.333022705078125,0.01900644786655903,0.49944737553596497,0.014549115672707558
1768558591992051700,11.3430517578125,0.03345489501953125,0.4459993243217468,0.01495045330375433
1768558592002080800,11.353080810546874,0.01949034444987774,0.43315061926841736,0.029460687190294266
1768558592012108500,11.363108642578124,0.009622001089155674,0.408630907535553,-0.012658537365496159
1768558592022137600,11.3731376953125,0.013920076191425323,0.30700069665908813,0.009393768385052681
1768558592032166700,11.383166748046875,0.004054396413266659,0.21320335566997528,-0.03724271059036255
1768558592042195500,11.393195556640626,0.000811997801065445,0.212737038731575,0.011097658425569534
1768558592052224500,11.403224609375,0.008354336023330688,0.21525798738002777,-0.03567330911755562
1768558592062253800,11.41325390625,0.008071774616837502,0.16506458818912506,-0.02418389916419983
1768558592072282600,11.42328271484375,0.005798500496894121,0.14644137024879456,-0.017250891774892807
1768558592082311700,11.433311767578125,0.01233123429119587,0.1931566745042801,-0.006197175942361355
1768558592092339700,11.443339599609375,0.01561304833739996,0.26099643111228943,0.014902782626450062
1768558592102368500,11.453368408203126,0.016271114349365234,0.34128621220588684,-0.02647315338253975
1768558592112397600,11.4633974609375,0.01504206657409668,0.401493638753891,0.008326905779540539
1768558592122426600,11.473426513671875,0.007635282818228006,0.4925132989883423,0.0035979305393993855
1768558592132455700,11.48345556640625,0.029625270515680313,0.5367928743362427,-0.014851117506623268
1768558592142484700,11.493484619140625,0.02171594835817814,0.6305084228515625,0.03169374540448189
1768558592152513800,11.503513671875,0.016595488414168358,0.6891376972198486,-0.011812717653810978
1768558592162541600,11.51354150390625,0.023998277261853218,0.6425829529762268,-0.0006024070316925645
1768558592172570600,11.523570556640625,0.02281263843178749,0.6205801963806152,-0.00555056007578969
1768558592182599700,11.533599609375,0.011748002842068672,0.6010293960571289,0.026258768513798714
1768558592192628700,11.543628662109375,0.012115252204239368,0.5601083040237427,0.017194433137774467
1768558592202657800,11.55365771484375,0.0015923039754852653,0.512409508228302,0.02732749469578266
1768558592212686800,11.563686767578124,0.017580324783921242,0.5108446478843689,-0.004450674634426832
1768558592222716000,11.5737158203125,0.019632557407021523,0.505088210105896,0.044978395104408264
1768558592232744700,11.58374462890625,0.01733451522886753,0.5490684509277344,0.0190205629914999
1768558592242772700,11.593772705078125,0.024825189262628555,0.5075833201408386,0.021335382014513016
1768558592252801500,11.603801513671876,0.02034362033009529,0.5134129524230957,0.00469462014734745
1768558592262830800,11.613830810546874,0.012764797545969486,0.4853864014148712,0.02299639582633972
1768558592272860000,11.62385986328125,0.01455816999077797,0.5042455792427063,-0.05397668108344078
1768558592282889000,11.633888916015625,0.015573899261653423,0.3214366137981415,0.02563532255589962
1768558592292917800,11.643917724609375,-0.011348261497914791,0.2590869665145874,-0.03618596866726875
1768558592302946800,11.65394677734375,0.015163772739470005,0.11002876609563828,-0.03141225129365921
1768558592312974600,11.663974609375,0.0009472863748669624,0.06664560735225677,-0.019529759883880615
1768558592323003600,11.674003662109374,0.0005331648280844092,0.08096276223659515,-0.0024490428622812033
1768558592333033000,11.684032958984375,-0.004252269398421049,0.1851046085357666,-0.01221565343439579
1768558592343061800,11.694061767578125,-0.002357163932174444,0.2326153963804245,-0.034211233258247375
1768558592353090800,11.7040908203125,-0.0013885721564292908,0.2519635260105133,0.0029286781791597605
1768558592363119900,11.714119873046876,0.009215602651238441,0.24366113543510437,-0.001317998394370079
1768558592373148700,11.724148681640624,-0.009431851096451283,0.20430387556552887,-0.021983595564961433
1768558592383177700,11.734177734375,-0.03104659914970398,0.12666046619415283,0.012712333351373672
1768558592393205800,11.744205810546875,-0.015438877046108246,0.09850287437438965,-0.006119944155216217
1768558592403234800,11.75423486328125,-0.027817782014608383,0.1403224915266037,0.04212721437215805
1768558592413264000,11.764263916015626,-0.02863830327987671,0.18974889814853668,-0.03617637977004051
1768558592423293000,11.77429296875,-0.004250671248883009,0.2389603853225708,-0.019161177799105644
1768558592433321700,11.78432177734375,0.0005896238726563752,0.3262431025505066,-0.019039470702409744
1768558592443350800,11.794350830078125,-0.012385030277073383,0.3411075174808502,-0.04862239584326744
1768558592453379800,11.8043798828125,-0.023070698603987694,0.3252395987510681,-0.04084117338061333
1768558592463407900,11.814407958984376,0.04166009649634361,0.3443424701690674,-0.050164900720119476
1768558592473437000,11.82443701171875,0.13121260702610016,0.3424753248691559,-0.056416139006614685
1768558592483465700,11.8344658203125,0.21886150538921356,0.33182400465011597,-0.0831068679690361
1768558592493494800,11.844494873046875,0.45760589838027954,0.2702772915363312,-0.4677616059780121
1768558592503523800,11.85452392578125,-0.35208800435066223,1.181111454963684,0.6418290138244629
1768558592513552600,11.864552734375,0.08661691844463348,-0.5460441708564758,0.21724656224250793
1768558592523581700,11.874581787109374,-0.17656464874744415,0.43274158239364624,0.009366070851683617
1768558592533610800,11.88461083984375,0.014795457944273949,0.09461385756731033,0.14065244793891907
1768558592543638800,11.894638671875,-0.040715739130973816,0.19601024687290192,0.06569112837314606
1768558592553667800,11.904667724609375,-0.017040768638253212,0.13280172646045685,0.09483703225851059
1768558592563697000,11.91469677734375,-0.023447269573807716,0.11760439723730087,0.03945925831794739
1768558592573725700,11.9247255859375,-0.006962302140891552,0.026071015745401382,0.08498653024435043
1768558592583754800,11.934754638671874,-0.041357025504112244,0.07231840491294861,0.06275312602519989
1768558592593783800,11.94478369140625,-0.016704678535461426,0.07831504195928574,0.07123742997646332
1768558592603812600,11.9548125,-0.003147589974105358,0.08779855817556381,0.12935079634189606
1768558592613841700,11.964841552734375,-0.01050164271146059,0.19599241018295288,0.0597674585878849
1768558592623869700,11.97486962890625,0.023428892716765404,0.238051176071167,0.0816354751586914
1768558592633898800,11.984898681640624,0.049796584993600845,0.3058624565601349,0.061161626130342484
